%time,field.header.seq,field.header.stamp,field.header.frame_id,field.orientation.x,field.orientation.y,field.orientation.z,field.orientation.w,field.orientation_covariance0,field.orientation_covariance1,field.orientation_covariance2,field.orientation_covariance3,field.orientation_covariance4,field.orientation_covariance5,field.orientation_covariance6,field.orientation_covariance7,field.orientation_covariance8,field.angular_velocity.x,field.angular_velocity.y,field.angular_velocity.z,field.angular_velocity_covariance0,field.angular_velocity_covariance1,field.angular_velocity_covariance2,field.angular_velocity_covariance3,field.angular_velocity_covariance4,field.angular_velocity_covariance5,field.angular_velocity_covariance6,field.angular_velocity_covariance7,field.angular_velocity_covariance8,field.linear_acceleration.x,field.linear_acceleration.y,field.linear_acceleration.z,field.linear_acceleration_covariance0,field.linear_acceleration_covariance1,field.linear_acceleration_covariance2,field.linear_acceleration_covariance3,field.linear_acceleration_covariance4,field.linear_acceleration_covariance5,field.linear_acceleration_covariance6,field.linear_acceleration_covariance7,field.linear_acceleration_covariance8
1783583646163964621,2854,1783583646163964621,base_link,0.00956853308307,0.0140066062437,-0.821648404273,-0.569742185477,1.0,0.0,0.0,0.0,1.0,0.0,0.0,0.0,1.0,-0.00143890781328,-0.00284229125828,0.0271446164697,1.21846967915e-07,0.0,0.0,0.0,1.21846967915e-07,0.0,0.0,0.0,1.21846967915e-07,0.0,-0.3138128,9.8262633,9e-08,0.0,0.0,0.0,9e-08,0.0,0.0,0.0,9e-08
1783583646163964621,2854,1783583646163964621,base_link,0.00956853308307,0.0140066062437,-0.821648404273,-0.569742185477,1.0,0.0,0.0,0.0,1.0,0.0,0.0,0.0,1.0,-0.00143890781328,-0.00284229125828,0.0271446164697,1.21846967915e-07,0.0,0.0,0.0,1.21846967915e-07,0.0,0.0,0.0,1.21846967915e-07,0.0,-0.3138128,9.8262633,9e-08,0.0,0.0,0.0,9e-08,0.0,0.0,0.0,9e-08
1783583646163964621,2854,1783583646163964621,base_link,0.00956853308307,0.0140066062437,-0.821648404273,-0.569742185477,1.0,0.0,0.0,0.0,1.0,0.0,0.0,0.0,1.0,-0.00143890781328,-0.00284229125828,0.0271446164697,1.21846967915e-07,0.0,0.0,0.0,1.21846967915e-07,0.0,0.0,0.0,1.21846967915e-07,0.0,-0.3138128,9.8262633,9e-08,0.0,0.0,0.0,9e-08,0.0,0.0,0.0,9e-08
1783583646163964621,2854,1783583646163964621,base_link,0.00956853308307,0.0140066062437,-0.821648404273,-0.569742185477,1.0,0.0,0.0,0.0,1.0,0.0,0.0,0.0,1.0,-0.00143890781328,-0.00284229125828,0.0271446164697,1.21846967915e-07,0.0,0.0,0.0,1.21846967915e-07,0.0,0.0,0.0,1.21846967915e-07,0.0,-0.3138128,9.8262633,9e-08,0.0,0.0,0.0,9e-08,0.0,0.0,0.0,9e-08
1783583646163964621,2854,1783583646163964621,base_link,0.00956853308307,0.0140066062437,-0.821648404273,-0.569742185477,1.0,0.0,0.0,0.0,1.0,0.0,0.0,0.0,1.0,-0.00143890781328,-0.00284229125828,0.0271446164697,1.21846967915e-07,0.0,0.0,0.0,1.21846967915e-07,0.0,0.0,0.0,1.21846967915e-07,0.0,-0.3138128,9.8262633,9e-08,0.0,0.0,0.0,9e-08,0.0,0.0,0.0,9e-08
1783583646163964621,2854,1783583646163964621,base_link,0.00956853308307,0.0140066062437,-0.821648404273,-0.569742185477,1.0,0.0,0.0,0.0,1.0,0.0,0.0,0.0,1.0,-0.00143890781328,-0.00284229125828,0.0271446164697,1.21846967915e-07,0.0,0.0,0.0,1.21846967915e-07,0.0,0.0,0.0,1.21846967915e-07,0.0,-0.3138128,9.8262633,9e-08,0.0,0.0,0.0,9e-08,0.0,0.0,0.0,9e-08
1783583646163964621,2854,1783583646163964621,base_link,0.00956853308307,0.0140066062437,-0.821648404273,-0.569742185477,1.0,0.0,0.0,0.0,1.0,0.0,0.0,0.0,1.0,-0.00143890781328,-0.00284229125828,0.0271446164697,1.21846967915e-07,0.0,0.0,0.0,1.21846967915e-07,0.0,0.0,0.0,1.21846967915e-07,0.0,-0.3138128,9.8262633,9e-08,0.0,0.0,0.0,9e-08,0.0,0.0,0.0,9e-08
1783583646163964621,2854,1783583646163964621,base_link,0.00956853308307,0.0140066062437,-0.821648404273,-0.569742185477,1.0,0.0,0.0,0.0,1.0,0.0,0.0,0.0,1.0,-0.00143890781328,-0.00284229125828,0.0271446164697,1.21846967915e-07,0.0,0.0,0.0,1.21846967915e-07,0.0,0.0,0.0,1.21846967915e-07,0.0,-0.3138128,9.8262633,9e-08,0.0,0.0,0.0,9e-08,0.0,0.0,0.0,9e-08
1783583646163964621,2854,1783583646163964621,base_link,0.00956853308307,0.0140066062437,-0.821648404273,-0.569742185477,1.0,0.0,0.0,0.0,1.0,0.0,0.0,0.0,1.0,-0.00143890781328,-0.00284229125828,0.0271446164697,1.21846967915e-07,0.0,0.0,0.0,1.21846967915e-07,0.0,0.0,0.0,1.21846967915e-07,0.0,-0.3138128,9.8262633,9e-08,0.0,0.0,0.0,9e-08,0.0,0.0,0.0,9e-08
1783583646163964621,2854,1783583646163964621,base_link,0.00956853308307,0.0140066062437,-0.821648404273,-0.569742185477,1.0,0.0,0.0,0.0,1.0,0.0,0.0,0.0,1.0,-0.00143890781328,-0.00284229125828,0.0271446164697,1.21846967915e-07,0.0,0.0,0.0,1.21846967915e-07,0.0,0.0,0.0,1.21846967915e-07,0.0,-0.3138128,9.8262633,9e-08,0.0,0.0,0.0,9e-08,0.0,0.0,0.0,9e-08
1783583646163964621,2854,1783583646163964621,base_link,0.00956853308307,0.0140066062437,-0.821648404273,-0.569742185477,1.0,0.0,0.0,0.0,1.0,0.0,0.0,0.0,1.0,-0.00143890781328,-0.00284229125828,0.0271446164697,1.21846967915e-07,0.0,0.0,0.0,1.21846967915e-07,0.0,0.0,0.0,1.21846967915e-07,0.0,-0.3138128,9.8262633,9e-08,0.0,0.0,0.0,9e-08,0.0,0.0,0.0,9e-08
1783583646163964621,2854,1783583646163964621,base_link,0.00956853308307,0.0140066062437,-0.821648404273,-0.569742185477,1.0,0.0,0.0,0.0,1.0,0.0,0.0,0.0,1.0,-0.00143890781328,-0.00284229125828,0.0271446164697,1.21846967915e-07,0.0,0.0,0.0,1.21846967915e-07,0.0,0.0,0.0,1.21846967915e-07,0.0,-0.3138128,9.8262633,9e-08,0.0,0.0,0.0,9e-08,0.0,0.0,0.0,9e-08
1783583646163964621,2854,1783583646163964621,base_link,0.00956853308307,0.0140066062437,-0.821648404273,-0.569742185477,1.0,0.0,0.0,0.0,1.0,0.0,0.0,0.0,1.0,-0.00143890781328,-0.00284229125828,0.0271446164697,1.21846967915e-07,0.0,0.0,0.0,1.21846967915e-07,0.0,0.0,0.0,1.21846967915e-07,0.0,-0.3138128,9.8262633,9e-08,0.0,0.0,0.0,9e-08,0.0,0.0,0.0,9e-08
1783583646163964621,2854,1783583646163964621,base_link,0.00956853308307,0.0140066062437,-0.821648404273,-0.569742185477,1.0,0.0,0.0,0.0,1.0,0.0,0.0,0.0,1.0,-0.00143890781328,-0.00284229125828,0.0271446164697,1.21846967915e-07,0.0,0.0,0.0,1.21846967915e-07,0.0,0.0,0.0,1.21846967915e-07,0.0,-0.3138128,9.8262633,9e-08,0.0,0.0,0.0,9e-08,0.0,0.0,0.0,9e-08
1783583646163964621,2854,1783583646163964621,base_link,0.00956853308307,0.0140066062437,-0.821648404273,-0.569742185477,1.0,0.0,0.0,0.0,1.0,0.0,0.0,0.0,1.0,-0.00143890781328,-0.00284229125828,0.0271446164697,1.21846967915e-07,0.0,0.0,0.0,1.21846967915e-07,0.0,0.0,0.0,1.21846967915e-07,0.0,-0.3138128,9.8262633,9e-08,0.0,0.0,0.0,9e-08,0.0,0.0,0.0,9e-08
1783583646163964621,2854,1783583646163964621,base_link,0.00956853308307,0.0140066062437,-0.821648404273,-0.569742185477,1.0,0.0,0.0,0.0,1.0,0.0,0.0,0.0,1.0,-0.00143890781328,-0.00284229125828,0.0271446164697,1.21846967915e-07,0.0,0.0,0.0,1.21846967915e-07,0.0,0.0,0.0,1.21846967915e-07,0.0,-0.3138128,9.8262633,9e-08,0.0,0.0,0.0,9e-08,0.0,0.0,0.0,9e-08
1783583646163964621,2854,1783583646163964621,base_link,0.00956853308307,0.0140066062437,-0.821648404273,-0.569742185477,1.0,0.0,0.0,0.0,1.0,0.0,0.0,0.0,1.0,-0.00143890781328,-0.00284229125828,0.0271446164697,1.21846967915e-07,0.0,0.0,0.0,1.21846967915e-07,0.0,0.0,0.0,1.21846967915e-07,0.0,-0.3138128,9.8262633,9e-08,0.0,0.0,0.0,9e-08,0.0,0.0,0.0,9e-08
1783583646163964621,2854,1783583646163964621,base_link,0.00956853308307,0.0140066062437,-0.821648404273,-0.569742185477,1.0,0.0,0.0,0.0,1.0,0.0,0.0,0.0,1.0,-0.00143890781328,-0.00284229125828,0.0271446164697,1.21846967915e-07,0.0,0.0,0.0,1.21846967915e-07,0.0,0.0,0.0,1.21846967915e-07,0.0,-0.3138128,9.8262633,9e-08,0.0,0.0,0.0,9e-08,0.0,0.0,0.0,9e-08
1783583646163964621,2854,1783583646163964621,base_link,0.00956853308307,0.0140066062437,-0.821648404273,-0.569742185477,1.0,0.0,0.0,0.0,1.0,0.0,0.0,0.0,1.0,-0.00143890781328,-0.00284229125828,0.0271446164697,1.21846967915e-07,0.0,0.0,0.0,1.21846967915e-07,0.0,0.0,0.0,1.21846967915e-07,0.0,-0.3138128,9.8262633,9e-08,0.0,0.0,0.0,9e-08,0.0,0.0,0.0,9e-08
1783583646163964621,2854,1783583646163964621,base_link,0.00956853308307,0.0140066062437,-0.821648404273,-0.569742185477,1.0,0.0,0.0,0.0,1.0,0.0,0.0,0.0,1.0,-0.00143890781328,-0.00284229125828,0.0271446164697,1.21846967915e-07,0.0,0.0,0.0,1.21846967915e-07,0.0,0.0,0.0,1.21846967915e-07,0.0,-0.3138128,9.8262633,9e-08,0.0,0.0,0.0,9e-08,0.0,0.0,0.0,9e-08
1783583646163964621,2854,1783583646163964621,base_link,0.00956853308307,0.0140066062437,-0.821648404273,-0.569742185477,1.0,0.0,0.0,0.0,1.0,0.0,0.0,0.0,1.0,-0.00143890781328,-0.00284229125828,0.0271446164697,1.21846967915e-07,0.0,0.0,0.0,1.21846967915e-07,0.0,0.0,0.0,1.21846967915e-07,0.0,-0.3138128,9.8262633,9e-08,0.0,0.0,0.0,9e-08,0.0,0.0,0.0,9e-08
1783583646163964621,2854,1783583646163964621,base_link,0.00956853308307,0.0140066062437,-0.821648404273,-0.569742185477,1.0,0.0,0.0,0.0,1.0,0.0,0.0,0.0,1.0,-0.00143890781328,-0.00284229125828,0.0271446164697,1.21846967915e-07,0.0,0.0,0.0,1.21846967915e-07,0.0,0.0,0.0,1.21846967915e-07,0.0,-0.3138128,9.8262633,9e-08,0.0,0.0,0.0,9e-08,0.0,0.0,0.0,9e-08
1783583646163964621,2854,1783583646163964621,base_link,0.00956853308307,0.0140066062437,-0.821648404273,-0.569742185477,1.0,0.0,0.0,0.0,1.0,0.0,0.0,0.0,1.0,-0.00143890781328,-0.00284229125828,0.0271446164697,1.21846967915e-07,0.0,0.0,0.0,1.21846967915e-07,0.0,0.0,0.0,1.21846967915e-07,0.0,-0.3138128,9.8262633,9e-08,0.0,0.0,0.0,9e-08,0.0,0.0,0.0,9e-08
1783583646163964621,2854,1783583646163964621,base_link,0.00956853308307,0.0140066062437,-0.821648404273,-0.569742185477,1.0,0.0,0.0,0.0,1.0,0.0,0.0,0.0,1.0,-0.00143890781328,-0.00284229125828,0.0271446164697,1.21846967915e-07,0.0,0.0,0.0,1.21846967915e-07,0.0,0.0,0.0,1.21846967915e-07,0.0,-0.3138128,9.8262633,9e-08,0.0,0.0,0.0,9e-08,0.0,0.0,0.0,9e-08
1783583646163964621,2854,1783583646163964621,base_link,0.00956853308307,0.0140066062437,-0.821648404273,-0.569742185477,1.0,0.0,0.0,0.0,1.0,0.0,0.0,0.0,1.0,-0.00143890781328,-0.00284229125828,0.0271446164697,1.21846967915e-07,0.0,0.0,0.0,1.21846967915e-07,0.0,0.0,0.0,1.21846967915e-07,0.0,-0.3138128,9.8262633,9e-08,0.0,0.0,0.0,9e-08,0.0,0.0,0.0,9e-08
1783583646163964621,2854,1783583646163964621,base_link,0.00956853308307,0.0140066062437,-0.821648404273,-0.569742185477,1.0,0.0,0.0,0.0,1.0,0.0,0.0,0.0,1.0,-0.00143890781328,-0.00284229125828,0.0271446164697,1.21846967915e-07,0.0,0.0,0.0,1.21846967915e-07,0.0,0.0,0.0,1.21846967915e-07,0.0,-0.3138128,9.8262633,9e-08,0.0,0.0,0.0,9e-08,0.0,0.0,0.0,9e-08
1783583646422964109,2855,1783583646422964109,base_link,0.00966322180979,0.0139656946168,-0.824377843193,-0.565785076837,1.0,0.0,0.0,0.0,1.0,0.0,0.0,0.0,1.0,1.8693972379e-06,0.00204114150256,0.0341822765768,1.21846967915e-07,0.0,0.0,0.0,1.21846967915e-07,0.0,0.0,0.0,1.21846967915e-07,0.0,-0.3138128,9.8262633,9e-08,0.0,0.0,0.0,9e-08,0.0,0.0,0.0,9e-08
1783583646422964109,2855,1783583646422964109,base_link,0.00966322180979,0.0139656946168,-0.824377843193,-0.565785076837,1.0,0.0,0.0,0.0,1.0,0.0,0.0,0.0,1.0,1.8693972379e-06,0.00204114150256,0.0341822765768,1.21846967915e-07,0.0,0.0,0.0,1.21846967915e-07,0.0,0.0,0.0,1.21846967915e-07,0.0,-0.3138128,9.8262633,9e-08,0.0,0.0,0.0,9e-08,0.0,0.0,0.0,9e-08
1783583646422964109,2855,1783583646422964109,base_link,0.00966322180979,0.0139656946168,-0.824377843193,-0.565785076837,1.0,0.0,0.0,0.0,1.0,0.0,0.0,0.0,1.0,1.8693972379e-06,0.00204114150256,0.0341822765768,1.21846967915e-07,0.0,0.0,0.0,1.21846967915e-07,0.0,0.0,0.0,1.21846967915e-07,0.0,-0.3138128,9.8262633,9e-08,0.0,0.0,0.0,9e-08,0.0,0.0,0.0,9e-08
1783583646422964109,2855,1783583646422964109,base_link,0.00966322180979,0.0139656946168,-0.824377843193,-0.565785076837,1.0,0.0,0.0,0.0,1.0,0.0,0.0,0.0,1.0,1.8693972379e-06,0.00204114150256,0.0341822765768,1.21846967915e-07,0.0,0.0,0.0,1.21846967915e-07,0.0,0.0,0.0,1.21846967915e-07,0.0,-0.3138128,9.8262633,9e-08,0.0,0.0,0.0,9e-08,0.0,0.0,0.0,9e-08
1783583646422964109,2855,1783583646422964109,base_link,0.00966322180979,0.0139656946168,-0.824377843193,-0.565785076837,1.0,0.0,0.0,0.0,1.0,0.0,0.0,0.0,1.0,1.8693972379e-06,0.00204114150256,0.0341822765768,1.21846967915e-07,0.0,0.0,0.0,1.21846967915e-07,0.0,0.0,0.0,1.21846967915e-07,0.0,-0.3138128,9.8262633,9e-08,0.0,0.0,0.0,9e-08,0.0,0.0,0.0,9e-08
1783583646422964109,2855,1783583646422964109,base_link,0.00966322180979,0.0139656946168,-0.824377843193,-0.565785076837,1.0,0.0,0.0,0.0,1.0,0.0,0.0,0.0,1.0,1.8693972379e-06,0.00204114150256,0.0341822765768,1.21846967915e-07,0.0,0.0,0.0,1.21846967915e-07,0.0,0.0,0.0,1.21846967915e-07,0.0,-0.3138128,9.8262633,9e-08,0.0,0.0,0.0,9e-08,0.0,0.0,0.0,9e-08
1783583646422964109,2855,1783583646422964109,base_link,0.00966322180979,0.0139656946168,-0.824377843193,-0.565785076837,1.0,0.0,0.0,0.0,1.0,0.0,0.0,0.0,1.0,1.8693972379e-06,0.00204114150256,0.0341822765768,1.21846967915e-07,0.0,0.0,0.0,1.21846967915e-07,0.0,0.0,0.0,1.21846967915e-07,0.0,-0.3138128,9.8262633,9e-08,0.0,0.0,0.0,9e-08,0.0,0.0,0.0,9e-08
1783583646422964109,2855,1783583646422964109,base_link,0.00966322180979,0.0139656946168,-0.824377843193,-0.565785076837,1.0,0.0,0.0,0.0,1.0,0.0,0.0,0.0,1.0,1.8693972379e-06,0.00204114150256,0.0341822765768,1.21846967915e-07,0.0,0.0,0.0,1.21846967915e-07,0.0,0.0,0.0,1.21846967915e-07,0.0,-0.3138128,9.8262633,9e-08,0.0,0.0,0.0,9e-08,0.0,0.0,0.0,9e-08
1783583646422964109,2855,1783583646422964109,base_link,0.00966322180979,0.0139656946168,-0.824377843193,-0.565785076837,1.0,0.0,0.0,0.0,1.0,0.0,0.0,0.0,1.0,1.8693972379e-06,0.00204114150256,0.0341822765768,1.21846967915e-07,0.0,0.0,0.0,1.21846967915e-07,0.0,0.0,0.0,1.21846967915e-07,0.0,-0.3138128,9.8262633,9e-08,0.0,0.0,0.0,9e-08,0.0,0.0,0.0,9e-08
1783583646422964109,2855,1783583646422964109,base_link,0.00966322180979,0.0139656946168,-0.824377843193,-0.565785076837,1.0,0.0,0.0,0.0,1.0,0.0,0.0,0.0,1.0,1.8693972379e-06,0.00204114150256,0.0341822765768,1.21846967915e-07,0.0,0.0,0.0,1.21846967915e-07,0.0,0.0,0.0,1.21846967915e-07,0.0,-0.3138128,9.8262633,9e-08,0.0,0.0,0.0,9e-08,0.0,0.0,0.0,9e-08
1783583646422964109,2855,1783583646422964109,base_link,0.00966322180979,0.0139656946168,-0.824377843193,-0.565785076837,1.0,0.0,0.0,0.0,1.0,0.0,0.0,0.0,1.0,1.8693972379e-06,0.00204114150256,0.0341822765768,1.21846967915e-07,0.0,0.0,0.0,1.21846967915e-07,0.0,0.0,0.0,1.21846967915e-07,0.0,-0.3138128,9.8262633,9e-08,0.0,0.0,0.0,9e-08,0.0,0.0,0.0,9e-08
1783583646422964109,2855,1783583646422964109,base_link,0.00966322180979,0.0139656946168,-0.824377843193,-0.565785076837,1.0,0.0,0.0,0.0,1.0,0.0,0.0,0.0,1.0,1.8693972379e-06,0.00204114150256,0.0341822765768,1.21846967915e-07,0.0,0.0,0.0,1.21846967915e-07,0.0,0.0,0.0,1.21846967915e-07,0.0,-0.3138128,9.8262633,9e-08,0.0,0.0,0.0,9e-08,0.0,0.0,0.0,9e-08
1783583646422964109,2855,1783583646422964109,base_link,0.00966322180979,0.0139656946168,-0.824377843193,-0.565785076837,1.0,0.0,0.0,0.0,1.0,0.0,0.0,0.0,1.0,1.8693972379e-06,0.00204114150256,0.0341822765768,1.21846967915e-07,0.0,0.0,0.0,1.21846967915e-07,0.0,0.0,0.0,1.21846967915e-07,0.0,-0.3138128,9.8262633,9e-08,0.0,0.0,0.0,9e-08,0.0,0.0,0.0,9e-08
1783583646422964109,2855,1783583646422964109,base_link,0.00966322180979,0.0139656946168,-0.824377843193,-0.565785076837,1.0,0.0,0.0,0.0,1.0,0.0,0.0,0.0,1.0,1.8693972379e-06,0.00204114150256,0.0341822765768,1.21846967915e-07,0.0,0.0,0.0,1.21846967915e-07,0.0,0.0,0.0,1.21846967915e-07,0.0,-0.3138128,9.8262633,9e-08,0.0,0.0,0.0,9e-08,0.0,0.0,0.0,9e-08
1783583646422964109,2855,1783583646422964109,base_link,0.00966322180979,0.0139656946168,-0.824377843193,-0.565785076837,1.0,0.0,0.0,0.0,1.0,0.0,0.0,0.0,1.0,1.8693972379e-06,0.00204114150256,0.0341822765768,1.21846967915e-07,0.0,0.0,0.0,1.21846967915e-07,0.0,0.0,0.0,1.21846967915e-07,0.0,-0.3138128,9.8262633,9e-08,0.0,0.0,0.0,9e-08,0.0,0.0,0.0,9e-08
1783583646422964109,2855,1783583646422964109,base_link,0.00966322180979,0.0139656946168,-0.824377843193,-0.565785076837,1.0,0.0,0.0,0.0,1.0,0.0,0.0,0.0,1.0,1.8693972379e-06,0.00204114150256,0.0341822765768,1.21846967915e-07,0.0,0.0,0.0,1.21846967915e-07,0.0,0.0,0.0,1.21846967915e-07,0.0,-0.3138128,9.8262633,9e-08,0.0,0.0,0.0,9e-08,0.0,0.0,0.0,9e-08
1783583646422964109,2855,1783583646422964109,base_link,0.00966322180979,0.0139656946168,-0.824377843193,-0.565785076837,1.0,0.0,0.0,0.0,1.0,0.0,0.0,0.0,1.0,1.8693972379e-06,0.00204114150256,0.0341822765768,1.21846967915e-07,0.0,0.0,0.0,1.21846967915e-07,0.0,0.0,0.0,1.21846967915e-07,0.0,-0.3138128,9.8262633,9e-08,0.0,0.0,0.0,9e-08,0.0,0.0,0.0,9e-08
1783583646422964109,2855,1783583646422964109,base_link,0.00966322180979,0.0139656946168,-0.824377843193,-0.565785076837,1.0,0.0,0.0,0.0,1.0,0.0,0.0,0.0,1.0,1.8693972379e-06,0.00204114150256,0.0341822765768,1.21846967915e-07,0.0,0.0,0.0,1.21846967915e-07,0.0,0.0,0.0,1.21846967915e-07,0.0,-0.3138128,9.8262633,9e-08,0.0,0.0,0.0,9e-08,0.0,0.0,0.0,9e-08
1783583646422964109,2855,1783583646422964109,base_link,0.00966322180979,0.0139656946168,-0.824377843193,-0.565785076837,1.0,0.0,0.0,0.0,1.0,0.0,0.0,0.0,1.0,1.8693972379e-06,0.00204114150256,0.0341822765768,1.21846967915e-07,0.0,0.0,0.0,1.21846967915e-07,0.0,0.0,0.0,1.21846967915e-07,0.0,-0.3138128,9.8262633,9e-08,0.0,0.0,0.0,9e-08,0.0,0.0,0.0,9e-08
1783583646422964109,2855,1783583646422964109,base_link,0.00966322180979,0.0139656946168,-0.824377843193,-0.565785076837,1.0,0.0,0.0,0.0,1.0,0.0,0.0,0.0,1.0,1.8693972379e-06,0.00204114150256,0.0341822765768,1.21846967915e-07,0.0,0.0,0.0,1.21846967915e-07,0.0,0.0,0.0,1.21846967915e-07,0.0,-0.3138128,9.8262633,9e-08,0.0,0.0,0.0,9e-08,0.0,0.0,0.0,9e-08
1783583646422964109,2855,1783583646422964109,base_link,0.00966322180979,0.0139656946168,-0.824377843193,-0.565785076837,1.0,0.0,0.0,0.0,1.0,0.0,0.0,0.0,1.0,1.8693972379e-06,0.00204114150256,0.0341822765768,1.21846967915e-07,0.0,0.0,0.0,1.21846967915e-07,0.0,0.0,0.0,1.21846967915e-07,0.0,-0.3138128,9.8262633,9e-08,0.0,0.0,0.0,9e-08,0.0,0.0,0.0,9e-08
1783583646422964109,2855,1783583646422964109,base_link,0.00966322180979,0.0139656946168,-0.824377843193,-0.565785076837,1.0,0.0,0.0,0.0,1.0,0.0,0.0,0.0,1.0,1.8693972379e-06,0.00204114150256,0.0341822765768,1.21846967915e-07,0.0,0.0,0.0,1.21846967915e-07,0.0,0.0,0.0,1.21846967915e-07,0.0,-0.3138128,9.8262633,9e-08,0.0,0.0,0.0,9e-08,0.0,0.0,0.0,9e-08
1783583646422964109,2855,1783583646422964109,base_link,0.00966322180979,0.0139656946168,-0.824377843193,-0.565785076837,1.0,0.0,0.0,0.0,1.0,0.0,0.0,0.0,1.0,1.8693972379e-06,0.00204114150256,0.0341822765768,1.21846967915e-07,0.0,0.0,0.0,1.21846967915e-07,0.0,0.0,0.0,1.21846967915e-07,0.0,-0.3138128,9.8262633,9e-08,0.0,0.0,0.0,9e-08,0.0,0.0,0.0,9e-08
1783583646422964109,2855,1783583646422964109,base_link,0.00966322180979,0.0139656946168,-0.824377843193,-0.565785076837,1.0,0.0,0.0,0.0,1.0,0.0,0.0,0.0,1.0,1.8693972379e-06,0.00204114150256,0.0341822765768,1.21846967915e-07,0.0,0.0,0.0,1.21846967915e-07,0.0,0.0,0.0,1.21846967915e-07,0.0,-0.3138128,9.8262633,9e-08,0.0,0.0,0.0,9e-08,0.0,0.0,0.0,9e-08
1783583646664265304,2856,1783583646664265304,base_link,0.0103120558033,0.0137769214297,-0.826873163128,-0.56212510177,1.0,0.0,0.0,0.0,1.0,0.0,0.0,0.0,1.0,-0.00207747123204,0.00492686312646,0.0317632295191,1.21846967915e-07,0.0,0.0,0.0,1.21846967915e-07,0.0,0.0,0.0,1.21846967915e-07,0.0,-0.3334261,9.81645665,9e-08,0.0,0.0,0.0,9e-08,0.0,0.0,0.0,9e-08
1783583646664265304,2856,1783583646664265304,base_link,0.0103120558033,0.0137769214297,-0.826873163128,-0.56212510177,1.0,0.0,0.0,0.0,1.0,0.0,0.0,0.0,1.0,-0.00207747123204,0.00492686312646,0.0317632295191,1.21846967915e-07,0.0,0.0,0.0,1.21846967915e-07,0.0,0.0,0.0,1.21846967915e-07,0.0,-0.3334261,9.81645665,9e-08,0.0,0.0,0.0,9e-08,0.0,0.0,0.0,9e-08
1783583646664265304,2856,1783583646664265304,base_link,0.0103120558033,0.0137769214297,-0.826873163128,-0.56212510177,1.0,0.0,0.0,0.0,1.0,0.0,0.0,0.0,1.0,-0.00207747123204,0.00492686312646,0.0317632295191,1.21846967915e-07,0.0,0.0,0.0,1.21846967915e-07,0.0,0.0,0.0,1.21846967915e-07,0.0,-0.3334261,9.81645665,9e-08,0.0,0.0,0.0,9e-08,0.0,0.0,0.0,9e-08
1783583646664265304,2856,1783583646664265304,base_link,0.0103120558033,0.0137769214297,-0.826873163128,-0.56212510177,1.0,0.0,0.0,0.0,1.0,0.0,0.0,0.0,1.0,-0.00207747123204,0.00492686312646,0.0317632295191,1.21846967915e-07,0.0,0.0,0.0,1.21846967915e-07,0.0,0.0,0.0,1.21846967915e-07,0.0,-0.3334261,9.81645665,9e-08,0.0,0.0,0.0,9e-08,0.0,0.0,0.0,9e-08
1783583646664265304,2856,1783583646664265304,base_link,0.0103120558033,0.0137769214297,-0.826873163128,-0.56212510177,1.0,0.0,0.0,0.0,1.0,0.0,0.0,0.0,1.0,-0.00207747123204,0.00492686312646,0.0317632295191,1.21846967915e-07,0.0,0.0,0.0,1.21846967915e-07,0.0,0.0,0.0,1.21846967915e-07,0.0,-0.3334261,9.81645665,9e-08,0.0,0.0,0.0,9e-08,0.0,0.0,0.0,9e-08
1783583646664265304,2856,1783583646664265304,base_link,0.0103120558033,0.0137769214297,-0.826873163128,-0.56212510177,1.0,0.0,0.0,0.0,1.0,0.0,0.0,0.0,1.0,-0.00207747123204,0.00492686312646,0.0317632295191,1.21846967915e-07,0.0,0.0,0.0,1.21846967915e-07,0.0,0.0,0.0,1.21846967915e-07,0.0,-0.3334261,9.81645665,9e-08,0.0,0.0,0.0,9e-08,0.0,0.0,0.0,9e-08
1783583646664265304,2856,1783583646664265304,base_link,0.0103120558033,0.0137769214297,-0.826873163128,-0.56212510177,1.0,0.0,0.0,0.0,1.0,0.0,0.0,0.0,1.0,-0.00207747123204,0.00492686312646,0.0317632295191,1.21846967915e-07,0.0,0.0,0.0,1.21846967915e-07,0.0,0.0,0.0,1.21846967915e-07,0.0,-0.3334261,9.81645665,9e-08,0.0,0.0,0.0,9e-08,0.0,0.0,0.0,9e-08
1783583646664265304,2856,1783583646664265304,base_link,0.0103120558033,0.0137769214297,-0.826873163128,-0.56212510177,1.0,0.0,0.0,0.0,1.0,0.0,0.0,0.0,1.0,-0.00207747123204,0.00492686312646,0.0317632295191,1.21846967915e-07,0.0,0.0,0.0,1.21846967915e-07,0.0,0.0,0.0,1.21846967915e-07,0.0,-0.3334261,9.81645665,9e-08,0.0,0.0,0.0,9e-08,0.0,0.0,0.0,9e-08
1783583646664265304,2856,1783583646664265304,base_link,0.0103120558033,0.0137769214297,-0.826873163128,-0.56212510177,1.0,0.0,0.0,0.0,1.0,0.0,0.0,0.0,1.0,-0.00207747123204,0.00492686312646,0.0317632295191,1.21846967915e-07,0.0,0.0,0.0,1.21846967915e-07,0.0,0.0,0.0,1.21846967915e-07,0.0,-0.3334261,9.81645665,9e-08,0.0,0.0,0.0,9e-08,0.0,0.0,0.0,9e-08
1783583646664265304,2856,1783583646664265304,base_link,0.0103120558033,0.0137769214297,-0.826873163128,-0.56212510177,1.0,0.0,0.0,0.0,1.0,0.0,0.0,0.0,1.0,-0.00207747123204,0.00492686312646,0.0317632295191,1.21846967915e-07,0.0,0.0,0.0,1.21846967915e-07,0.0,0.0,0.0,1.21846967915e-07,0.0,-0.3334261,9.81645665,9e-08,0.0,0.0,0.0,9e-08,0.0,0.0,0.0,9e-08
1783583646664265304,2856,1783583646664265304,base_link,0.0103120558033,0.0137769214297,-0.826873163128,-0.56212510177,1.0,0.0,0.0,0.0,1.0,0.0,0.0,0.0,1.0,-0.00207747123204,0.00492686312646,0.0317632295191,1.21846967915e-07,0.0,0.0,0.0,1.21846967915e-07,0.0,0.0,0.0,1.21846967915e-07,0.0,-0.3334261,9.81645665,9e-08,0.0,0.0,0.0,9e-08,0.0,0.0,0.0,9e-08
1783583646664265304,2856,1783583646664265304,base_link,0.0103120558033,0.0137769214297,-0.826873163128,-0.56212510177,1.0,0.0,0.0,0.0,1.0,0.0,0.0,0.0,1.0,-0.00207747123204,0.00492686312646,0.0317632295191,1.21846967915e-07,0.0,0.0,0.0,1.21846967915e-07,0.0,0.0,0.0,1.21846967915e-07,0.0,-0.3334261,9.81645665,9e-08,0.0,0.0,0.0,9e-08,0.0,0.0,0.0,9e-08
1783583646664265304,2856,1783583646664265304,base_link,0.0103120558033,0.0137769214297,-0.826873163128,-0.56212510177,1.0,0.0,0.0,0.0,1.0,0.0,0.0,0.0,1.0,-0.00207747123204,0.00492686312646,0.0317632295191,1.21846967915e-07,0.0,0.0,0.0,1.21846967915e-07,0.0,0.0,0.0,1.21846967915e-07,0.0,-0.3334261,9.81645665,9e-08,0.0,0.0,0.0,9e-08,0.0,0.0,0.0,9e-08
1783583646664265304,2856,1783583646664265304,base_link,0.0103120558033,0.0137769214297,-0.826873163128,-0.56212510177,1.0,0.0,0.0,0.0,1.0,0.0,0.0,0.0,1.0,-0.00207747123204,0.00492686312646,0.0317632295191,1.21846967915e-07,0.0,0.0,0.0,1.21846967915e-07,0.0,0.0,0.0,1.21846967915e-07,0.0,-0.3334261,9.81645665,9e-08,0.0,0.0,0.0,9e-08,0.0,0.0,0.0,9e-08
1783583646664265304,2856,1783583646664265304,base_link,0.0103120558033,0.0137769214297,-0.826873163128,-0.56212510177,1.0,0.0,0.0,0.0,1.0,0.0,0.0,0.0,1.0,-0.00207747123204,0.00492686312646,0.0317632295191,1.21846967915e-07,0.0,0.0,0.0,1.21846967915e-07,0.0,0.0,0.0,1.21846967915e-07,0.0,-0.3334261,9.81645665,9e-08,0.0,0.0,0.0,9e-08,0.0,0.0,0.0,9e-08
1783583646664265304,2856,1783583646664265304,base_link,0.0103120558033,0.0137769214297,-0.826873163128,-0.56212510177,1.0,0.0,0.0,0.0,1.0,0.0,0.0,0.0,1.0,-0.00207747123204,0.00492686312646,0.0317632295191,1.21846967915e-07,0.0,0.0,0.0,1.21846967915e-07,0.0,0.0,0.0,1.21846967915e-07,0.0,-0.3334261,9.81645665,9e-08,0.0,0.0,0.0,9e-08,0.0,0.0,0.0,9e-08
1783583646664265304,2856,1783583646664265304,base_link,0.0103120558033,0.0137769214297,-0.826873163128,-0.56212510177,1.0,0.0,0.0,0.0,1.0,0.0,0.0,0.0,1.0,-0.00207747123204,0.00492686312646,0.0317632295191,1.21846967915e-07,0.0,0.0,0.0,1.21846967915e-07,0.0,0.0,0.0,1.21846967915e-07,0.0,-0.3334261,9.81645665,9e-08,0.0,0.0,0.0,9e-08,0.0,0.0,0.0,9e-08
1783583646664265304,2856,1783583646664265304,base_link,0.0103120558033,0.0137769214297,-0.826873163128,-0.56212510177,1.0,0.0,0.0,0.0,1.0,0.0,0.0,0.0,1.0,-0.00207747123204,0.00492686312646,0.0317632295191,1.21846967915e-07,0.0,0.0,0.0,1.21846967915e-07,0.0,0.0,0.0,1.21846967915e-07,0.0,-0.3334261,9.81645665,9e-08,0.0,0.0,0.0,9e-08,0.0,0.0,0.0,9e-08
1783583646664265304,2856,1783583646664265304,base_link,0.0103120558033,0.0137769214297,-0.826873163128,-0.56212510177,1.0,0.0,0.0,0.0,1.0,0.0,0.0,0.0,1.0,-0.00207747123204,0.00492686312646,0.0317632295191,1.21846967915e-07,0.0,0.0,0.0,1.21846967915e-07,0.0,0.0,0.0,1.21846967915e-07,0.0,-0.3334261,9.81645665,9e-08,0.0,0.0,0.0,9e-08,0.0,0.0,0.0,9e-08
1783583646664265304,2856,1783583646664265304,base_link,0.0103120558033,0.0137769214297,-0.826873163128,-0.56212510177,1.0,0.0,0.0,0.0,1.0,0.0,0.0,0.0,1.0,-0.00207747123204,0.00492686312646,0.0317632295191,1.21846967915e-07,0.0,0.0,0.0,1.21846967915e-07,0.0,0.0,0.0,1.21846967915e-07,0.0,-0.3334261,9.81645665,9e-08,0.0,0.0,0.0,9e-08,0.0,0.0,0.0,9e-08
1783583646664265304,2856,1783583646664265304,base_link,0.0103120558033,0.0137769214297,-0.826873163128,-0.56212510177,1.0,0.0,0.0,0.0,1.0,0.0,0.0,0.0,1.0,-0.00207747123204,0.00492686312646,0.0317632295191,1.21846967915e-07,0.0,0.0,0.0,1.21846967915e-07,0.0,0.0,0.0,1.21846967915e-07,0.0,-0.3334261,9.81645665,9e-08,0.0,0.0,0.0,9e-08,0.0,0.0,0.0,9e-08
1783583646664265304,2856,1783583646664265304,base_link,0.0103120558033,0.0137769214297,-0.826873163128,-0.56212510177,1.0,0.0,0.0,0.0,1.0,0.0,0.0,0.0,1.0,-0.00207747123204,0.00492686312646,0.0317632295191,1.21846967915e-07,0.0,0.0,0.0,1.21846967915e-07,0.0,0.0,0.0,1.21846967915e-07,0.0,-0.3334261,9.81645665,9e-08,0.0,0.0,0.0,9e-08,0.0,0.0,0.0,9e-08
1783583646664265304,2856,1783583646664265304,base_link,0.0103120558033,0.0137769214297,-0.826873163128,-0.56212510177,1.0,0.0,0.0,0.0,1.0,0.0,0.0,0.0,1.0,-0.00207747123204,0.00492686312646,0.0317632295191,1.21846967915e-07,0.0,0.0,0.0,1.21846967915e-07,0.0,0.0,0.0,1.21846967915e-07,0.0,-0.3334261,9.81645665,9e-08,0.0,0.0,0.0,9e-08,0.0,0.0,0.0,9e-08
1783583646664265304,2856,1783583646664265304,base_link,0.0103120558033,0.0137769214297,-0.826873163128,-0.56212510177,1.0,0.0,0.0,0.0,1.0,0.0,0.0,0.0,1.0,-0.00207747123204,0.00492686312646,0.0317632295191,1.21846967915e-07,0.0,0.0,0.0,1.21846967915e-07,0.0,0.0,0.0,1.21846967915e-07,0.0,-0.3334261,9.81645665,9e-08,0.0,0.0,0.0,9e-08,0.0,0.0,0.0,9e-08
1783583646664265304,2856,1783583646664265304,base_link,0.0103120558033,0.0137769214297,-0.826873163128,-0.56212510177,1.0,0.0,0.0,0.0,1.0,0.0,0.0,0.0,1.0,-0.00207747123204,0.00492686312646,0.0317632295191,1.21846967915e-07,0.0,0.0,0.0,1.21846967915e-07,0.0,0.0,0.0,1.21846967915e-07,0.0,-0.3334261,9.81645665,9e-08,0.0,0.0,0.0,9e-08,0.0,0.0,0.0,9e-08
1783583646664265304,2856,1783583646664265304,base_link,0.0103120558033,0.0137769214297,-0.826873163128,-0.56212510177,1.0,0.0,0.0,0.0,1.0,0.0,0.0,0.0,1.0,-0.00207747123204,0.00492686312646,0.0317632295191,1.21846967915e-07,0.0,0.0,0.0,1.21846967915e-07,0.0,0.0,0.0,1.21846967915e-07,0.0,-0.3334261,9.81645665,9e-08,0.0,0.0,0.0,9e-08,0.0,0.0,0.0,9e-08
1783583646923265816,2857,1783583646923265816,base_link,0.0109870735515,0.0143120005718,-0.829536829824,-0.558160459742,1.0,0.0,0.0,0.0,1.0,0.0,0.0,0.0,1.0,-0.00549962976947,0.000553280115128,0.0335138589144,1.21846967915e-07,0.0,0.0,0.0,1.21846967915e-07,0.0,0.0,0.0,1.21846967915e-07,0.0,-0.3334261,9.81645665,9e-08,0.0,0.0,0.0,9e-08,0.0,0.0,0.0,9e-08
1783583646923265816,2857,1783583646923265816,base_link,0.0109870735515,0.0143120005718,-0.829536829824,-0.558160459742,1.0,0.0,0.0,0.0,1.0,0.0,0.0,0.0,1.0,-0.00549962976947,0.000553280115128,0.0335138589144,1.21846967915e-07,0.0,0.0,0.0,1.21846967915e-07,0.0,0.0,0.0,1.21846967915e-07,0.0,-0.3334261,9.81645665,9e-08,0.0,0.0,0.0,9e-08,0.0,0.0,0.0,9e-08
1783583646923265816,2857,1783583646923265816,base_link,0.0109870735515,0.0143120005718,-0.829536829824,-0.558160459742,1.0,0.0,0.0,0.0,1.0,0.0,0.0,0.0,1.0,-0.00549962976947,0.000553280115128,0.0335138589144,1.21846967915e-07,0.0,0.0,0.0,1.21846967915e-07,0.0,0.0,0.0,1.21846967915e-07,0.0,-0.3334261,9.81645665,9e-08,0.0,0.0,0.0,9e-08,0.0,0.0,0.0,9e-08
1783583646923265816,2857,1783583646923265816,base_link,0.0109870735515,0.0143120005718,-0.829536829824,-0.558160459742,1.0,0.0,0.0,0.0,1.0,0.0,0.0,0.0,1.0,-0.00549962976947,0.000553280115128,0.0335138589144,1.21846967915e-07,0.0,0.0,0.0,1.21846967915e-07,0.0,0.0,0.0,1.21846967915e-07,0.0,-0.3334261,9.81645665,9e-08,0.0,0.0,0.0,9e-08,0.0,0.0,0.0,9e-08
1783583646923265816,2857,1783583646923265816,base_link,0.0109870735515,0.0143120005718,-0.829536829824,-0.558160459742,1.0,0.0,0.0,0.0,1.0,0.0,0.0,0.0,1.0,-0.00549962976947,0.000553280115128,0.0335138589144,1.21846967915e-07,0.0,0.0,0.0,1.21846967915e-07,0.0,0.0,0.0,1.21846967915e-07,0.0,-0.3334261,9.81645665,9e-08,0.0,0.0,0.0,9e-08,0.0,0.0,0.0,9e-08
1783583646923265816,2857,1783583646923265816,base_link,0.0109870735515,0.0143120005718,-0.829536829824,-0.558160459742,1.0,0.0,0.0,0.0,1.0,0.0,0.0,0.0,1.0,-0.00549962976947,0.000553280115128,0.0335138589144,1.21846967915e-07,0.0,0.0,0.0,1.21846967915e-07,0.0,0.0,0.0,1.21846967915e-07,0.0,-0.3334261,9.81645665,9e-08,0.0,0.0,0.0,9e-08,0.0,0.0,0.0,9e-08
1783583646923265816,2857,1783583646923265816,base_link,0.0109870735515,0.0143120005718,-0.829536829824,-0.558160459742,1.0,0.0,0.0,0.0,1.0,0.0,0.0,0.0,1.0,-0.00549962976947,0.000553280115128,0.0335138589144,1.21846967915e-07,0.0,0.0,0.0,1.21846967915e-07,0.0,0.0,0.0,1.21846967915e-07,0.0,-0.3334261,9.81645665,9e-08,0.0,0.0,0.0,9e-08,0.0,0.0,0.0,9e-08
1783583646923265816,2857,1783583646923265816,base_link,0.0109870735515,0.0143120005718,-0.829536829824,-0.558160459742,1.0,0.0,0.0,0.0,1.0,0.0,0.0,0.0,1.0,-0.00549962976947,0.000553280115128,0.0335138589144,1.21846967915e-07,0.0,0.0,0.0,1.21846967915e-07,0.0,0.0,0.0,1.21846967915e-07,0.0,-0.3334261,9.81645665,9e-08,0.0,0.0,0.0,9e-08,0.0,0.0,0.0,9e-08
1783583646923265816,2857,1783583646923265816,base_link,0.0109870735515,0.0143120005718,-0.829536829824,-0.558160459742,1.0,0.0,0.0,0.0,1.0,0.0,0.0,0.0,1.0,-0.00549962976947,0.000553280115128,0.0335138589144,1.21846967915e-07,0.0,0.0,0.0,1.21846967915e-07,0.0,0.0,0.0,1.21846967915e-07,0.0,-0.3334261,9.81645665,9e-08,0.0,0.0,0.0,9e-08,0.0,0.0,0.0,9e-08
1783583646923265816,2857,1783583646923265816,base_link,0.0109870735515,0.0143120005718,-0.829536829824,-0.558160459742,1.0,0.0,0.0,0.0,1.0,0.0,0.0,0.0,1.0,-0.00549962976947,0.000553280115128,0.0335138589144,1.21846967915e-07,0.0,0.0,0.0,1.21846967915e-07,0.0,0.0,0.0,1.21846967915e-07,0.0,-0.3334261,9.81645665,9e-08,0.0,0.0,0.0,9e-08,0.0,0.0,0.0,9e-08
1783583646923265816,2857,1783583646923265816,base_link,0.0109870735515,0.0143120005718,-0.829536829824,-0.558160459742,1.0,0.0,0.0,0.0,1.0,0.0,0.0,0.0,1.0,-0.00549962976947,0.000553280115128,0.0335138589144,1.21846967915e-07,0.0,0.0,0.0,1.21846967915e-07,0.0,0.0,0.0,1.21846967915e-07,0.0,-0.3334261,9.81645665,9e-08,0.0,0.0,0.0,9e-08,0.0,0.0,0.0,9e-08
1783583646923265816,2857,1783583646923265816,base_link,0.0109870735515,0.0143120005718,-0.829536829824,-0.558160459742,1.0,0.0,0.0,0.0,1.0,0.0,0.0,0.0,1.0,-0.00549962976947,0.000553280115128,0.0335138589144,1.21846967915e-07,0.0,0.0,0.0,1.21846967915e-07,0.0,0.0,0.0,1.21846967915e-07,0.0,-0.3334261,9.81645665,9e-08,0.0,0.0,0.0,9e-08,0.0,0.0,0.0,9e-08
1783583646923265816,2857,1783583646923265816,base_link,0.0109870735515,0.0143120005718,-0.829536829824,-0.558160459742,1.0,0.0,0.0,0.0,1.0,0.0,0.0,0.0,1.0,-0.00549962976947,0.000553280115128,0.0335138589144,1.21846967915e-07,0.0,0.0,0.0,1.21846967915e-07,0.0,0.0,0.0,1.21846967915e-07,0.0,-0.3334261,9.81645665,9e-08,0.0,0.0,0.0,9e-08,0.0,0.0,0.0,9e-08
1783583646923265816,2857,1783583646923265816,base_link,0.0109870735515,0.0143120005718,-0.829536829824,-0.558160459742,1.0,0.0,0.0,0.0,1.0,0.0,0.0,0.0,1.0,-0.00549962976947,0.000553280115128,0.0335138589144,1.21846967915e-07,0.0,0.0,0.0,1.21846967915e-07,0.0,0.0,0.0,1.21846967915e-07,0.0,-0.3334261,9.81645665,9e-08,0.0,0.0,0.0,9e-08,0.0,0.0,0.0,9e-08
1783583646923265816,2857,1783583646923265816,base_link,0.0109870735515,0.0143120005718,-0.829536829824,-0.558160459742,1.0,0.0,0.0,0.0,1.0,0.0,0.0,0.0,1.0,-0.00549962976947,0.000553280115128,0.0335138589144,1.21846967915e-07,0.0,0.0,0.0,1.21846967915e-07,0.0,0.0,0.0,1.21846967915e-07,0.0,-0.3334261,9.81645665,9e-08,0.0,0.0,0.0,9e-08,0.0,0.0,0.0,9e-08
1783583646923265816,2857,1783583646923265816,base_link,0.0109870735515,0.0143120005718,-0.829536829824,-0.558160459742,1.0,0.0,0.0,0.0,1.0,0.0,0.0,0.0,1.0,-0.00549962976947,0.000553280115128,0.0335138589144,1.21846967915e-07,0.0,0.0,0.0,1.21846967915e-07,0.0,0.0,0.0,1.21846967915e-07,0.0,-0.3334261,9.81645665,9e-08,0.0,0.0,0.0,9e-08,0.0,0.0,0.0,9e-08
1783583646923265816,2857,1783583646923265816,base_link,0.0109870735515,0.0143120005718,-0.829536829824,-0.558160459742,1.0,0.0,0.0,0.0,1.0,0.0,0.0,0.0,1.0,-0.00549962976947,0.000553280115128,0.0335138589144,1.21846967915e-07,0.0,0.0,0.0,1.21846967915e-07,0.0,0.0,0.0,1.21846967915e-07,0.0,-0.3334261,9.81645665,9e-08,0.0,0.0,0.0,9e-08,0.0,0.0,0.0,9e-08
1783583646923265816,2857,1783583646923265816,base_link,0.0109870735515,0.0143120005718,-0.829536829824,-0.558160459742,1.0,0.0,0.0,0.0,1.0,0.0,0.0,0.0,1.0,-0.00549962976947,0.000553280115128,0.0335138589144,1.21846967915e-07,0.0,0.0,0.0,1.21846967915e-07,0.0,0.0,0.0,1.21846967915e-07,0.0,-0.3334261,9.81645665,9e-08,0.0,0.0,0.0,9e-08,0.0,0.0,0.0,9e-08
1783583646923265816,2857,1783583646923265816,base_link,0.0109870735515,0.0143120005718,-0.829536829824,-0.558160459742,1.0,0.0,0.0,0.0,1.0,0.0,0.0,0.0,1.0,-0.00549962976947,0.000553280115128,0.0335138589144,1.21846967915e-07,0.0,0.0,0.0,1.21846967915e-07,0.0,0.0,0.0,1.21846967915e-07,0.0,-0.3334261,9.81645665,9e-08,0.0,0.0,0.0,9e-08,0.0,0.0,0.0,9e-08
1783583646923265816,2857,1783583646923265816,base_link,0.0109870735515,0.0143120005718,-0.829536829824,-0.558160459742,1.0,0.0,0.0,0.0,1.0,0.0,0.0,0.0,1.0,-0.00549962976947,0.000553280115128,0.0335138589144,1.21846967915e-07,0.0,0.0,0.0,1.21846967915e-07,0.0,0.0,0.0,1.21846967915e-07,0.0,-0.3334261,9.81645665,9e-08,0.0,0.0,0.0,9e-08,0.0,0.0,0.0,9e-08
1783583646923265816,2857,1783583646923265816,base_link,0.0109870735515,0.0143120005718,-0.829536829824,-0.558160459742,1.0,0.0,0.0,0.0,1.0,0.0,0.0,0.0,1.0,-0.00549962976947,0.000553280115128,0.0335138589144,1.21846967915e-07,0.0,0.0,0.0,1.21846967915e-07,0.0,0.0,0.0,1.21846967915e-07,0.0,-0.3334261,9.81645665,9e-08,0.0,0.0,0.0,9e-08,0.0,0.0,0.0,9e-08
1783583646923265816,2857,1783583646923265816,base_link,0.0109870735515,0.0143120005718,-0.829536829824,-0.558160459742,1.0,0.0,0.0,0.0,1.0,0.0,0.0,0.0,1.0,-0.00549962976947,0.000553280115128,0.0335138589144,1.21846967915e-07,0.0,0.0,0.0,1.21846967915e-07,0.0,0.0,0.0,1.21846967915e-07,0.0,-0.3334261,9.81645665,9e-08,0.0,0.0,0.0,9e-08,0.0,0.0,0.0,9e-08
1783583646923265816,2857,1783583646923265816,base_link,0.0109870735515,0.0143120005718,-0.829536829824,-0.558160459742,1.0,0.0,0.0,0.0,1.0,0.0,0.0,0.0,1.0,-0.00549962976947,0.000553280115128,0.0335138589144,1.21846967915e-07,0.0,0.0,0.0,1.21846967915e-07,0.0,0.0,0.0,1.21846967915e-07,0.0,-0.3334261,9.81645665,9e-08,0.0,0.0,0.0,9e-08,0.0,0.0,0.0,9e-08
1783583646923265816,2857,1783583646923265816,base_link,0.0109870735515,0.0143120005718,-0.829536829824,-0.558160459742,1.0,0.0,0.0,0.0,1.0,0.0,0.0,0.0,1.0,-0.00549962976947,0.000553280115128,0.0335138589144,1.21846967915e-07,0.0,0.0,0.0,1.21846967915e-07,0.0,0.0,0.0,1.21846967915e-07,0.0,-0.3334261,9.81645665,9e-08,0.0,0.0,0.0,9e-08,0.0,0.0,0.0,9e-08
1783583647164042013,2858,1783583647164042013,base_link,0.0110099498727,0.0140672872881,-0.832028950041,-0.554444513659,1.0,0.0,0.0,0.0,1.0,0.0,0.0,0.0,1.0,0.00392636703327,0.000454401597381,0.0330063030124,1.21846967915e-07,0.0,0.0,0.0,1.21846967915e-07,0.0,0.0,0.0,1.21846967915e-07,0.0,-0.34323275,9.8262633,9e-08,0.0,0.0,0.0,9e-08,0.0,0.0,0.0,9e-08
1783583647164042013,2858,1783583647164042013,base_link,0.0110099498727,0.0140672872881,-0.832028950041,-0.554444513659,1.0,0.0,0.0,0.0,1.0,0.0,0.0,0.0,1.0,0.00392636703327,0.000454401597381,0.0330063030124,1.21846967915e-07,0.0,0.0,0.0,1.21846967915e-07,0.0,0.0,0.0,1.21846967915e-07,0.0,-0.34323275,9.8262633,9e-08,0.0,0.0,0.0,9e-08,0.0,0.0,0.0,9e-08
1783583647164042013,2858,1783583647164042013,base_link,0.0110099498727,0.0140672872881,-0.832028950041,-0.554444513659,1.0,0.0,0.0,0.0,1.0,0.0,0.0,0.0,1.0,0.00392636703327,0.000454401597381,0.0330063030124,1.21846967915e-07,0.0,0.0,0.0,1.21846967915e-07,0.0,0.0,0.0,1.21846967915e-07,0.0,-0.34323275,9.8262633,9e-08,0.0,0.0,0.0,9e-08,0.0,0.0,0.0,9e-08
1783583647164042013,2858,1783583647164042013,base_link,0.0110099498727,0.0140672872881,-0.832028950041,-0.554444513659,1.0,0.0,0.0,0.0,1.0,0.0,0.0,0.0,1.0,0.00392636703327,0.000454401597381,0.0330063030124,1.21846967915e-07,0.0,0.0,0.0,1.21846967915e-07,0.0,0.0,0.0,1.21846967915e-07,0.0,-0.34323275,9.8262633,9e-08,0.0,0.0,0.0,9e-08,0.0,0.0,0.0,9e-08
1783583647164042013,2858,1783583647164042013,base_link,0.0110099498727,0.0140672872881,-0.832028950041,-0.554444513659,1.0,0.0,0.0,0.0,1.0,0.0,0.0,0.0,1.0,0.00392636703327,0.000454401597381,0.0330063030124,1.21846967915e-07,0.0,0.0,0.0,1.21846967915e-07,0.0,0.0,0.0,1.21846967915e-07,0.0,-0.34323275,9.8262633,9e-08,0.0,0.0,0.0,9e-08,0.0,0.0,0.0,9e-08
1783583647164042013,2858,1783583647164042013,base_link,0.0110099498727,0.0140672872881,-0.832028950041,-0.554444513659,1.0,0.0,0.0,0.0,1.0,0.0,0.0,0.0,1.0,0.00392636703327,0.000454401597381,0.0330063030124,1.21846967915e-07,0.0,0.0,0.0,1.21846967915e-07,0.0,0.0,0.0,1.21846967915e-07,0.0,-0.34323275,9.8262633,9e-08,0.0,0.0,0.0,9e-08,0.0,0.0,0.0,9e-08
1783583647164042013,2858,1783583647164042013,base_link,0.0110099498727,0.0140672872881,-0.832028950041,-0.554444513659,1.0,0.0,0.0,0.0,1.0,0.0,0.0,0.0,1.0,0.00392636703327,0.000454401597381,0.0330063030124,1.21846967915e-07,0.0,0.0,0.0,1.21846967915e-07,0.0,0.0,0.0,1.21846967915e-07,0.0,-0.34323275,9.8262633,9e-08,0.0,0.0,0.0,9e-08,0.0,0.0,0.0,9e-08
1783583647164042013,2858,1783583647164042013,base_link,0.0110099498727,0.0140672872881,-0.832028950041,-0.554444513659,1.0,0.0,0.0,0.0,1.0,0.0,0.0,0.0,1.0,0.00392636703327,0.000454401597381,0.0330063030124,1.21846967915e-07,0.0,0.0,0.0,1.21846967915e-07,0.0,0.0,0.0,1.21846967915e-07,0.0,-0.34323275,9.8262633,9e-08,0.0,0.0,0.0,9e-08,0.0,0.0,0.0,9e-08
1783583647164042013,2858,1783583647164042013,base_link,0.0110099498727,0.0140672872881,-0.832028950041,-0.554444513659,1.0,0.0,0.0,0.0,1.0,0.0,0.0,0.0,1.0,0.00392636703327,0.000454401597381,0.0330063030124,1.21846967915e-07,0.0,0.0,0.0,1.21846967915e-07,0.0,0.0,0.0,1.21846967915e-07,0.0,-0.34323275,9.8262633,9e-08,0.0,0.0,0.0,9e-08,0.0,0.0,0.0,9e-08
1783583647164042013,2858,1783583647164042013,base_link,0.0110099498727,0.0140672872881,-0.832028950041,-0.554444513659,1.0,0.0,0.0,0.0,1.0,0.0,0.0,0.0,1.0,0.00392636703327,0.000454401597381,0.0330063030124,1.21846967915e-07,0.0,0.0,0.0,1.21846967915e-07,0.0,0.0,0.0,1.21846967915e-07,0.0,-0.34323275,9.8262633,9e-08,0.0,0.0,0.0,9e-08,0.0,0.0,0.0,9e-08
1783583647164042013,2858,1783583647164042013,base_link,0.0110099498727,0.0140672872881,-0.832028950041,-0.554444513659,1.0,0.0,0.0,0.0,1.0,0.0,0.0,0.0,1.0,0.00392636703327,0.000454401597381,0.0330063030124,1.21846967915e-07,0.0,0.0,0.0,1.21846967915e-07,0.0,0.0,0.0,1.21846967915e-07,0.0,-0.34323275,9.8262633,9e-08,0.0,0.0,0.0,9e-08,0.0,0.0,0.0,9e-08
1783583647164042013,2858,1783583647164042013,base_link,0.0110099498727,0.0140672872881,-0.832028950041,-0.554444513659,1.0,0.0,0.0,0.0,1.0,0.0,0.0,0.0,1.0,0.00392636703327,0.000454401597381,0.0330063030124,1.21846967915e-07,0.0,0.0,0.0,1.21846967915e-07,0.0,0.0,0.0,1.21846967915e-07,0.0,-0.34323275,9.8262633,9e-08,0.0,0.0,0.0,9e-08,0.0,0.0,0.0,9e-08
1783583647164042013,2858,1783583647164042013,base_link,0.0110099498727,0.0140672872881,-0.832028950041,-0.554444513659,1.0,0.0,0.0,0.0,1.0,0.0,0.0,0.0,1.0,0.00392636703327,0.000454401597381,0.0330063030124,1.21846967915e-07,0.0,0.0,0.0,1.21846967915e-07,0.0,0.0,0.0,1.21846967915e-07,0.0,-0.34323275,9.8262633,9e-08,0.0,0.0,0.0,9e-08,0.0,0.0,0.0,9e-08
1783583647164042013,2858,1783583647164042013,base_link,0.0110099498727,0.0140672872881,-0.832028950041,-0.554444513659,1.0,0.0,0.0,0.0,1.0,0.0,0.0,0.0,1.0,0.00392636703327,0.000454401597381,0.0330063030124,1.21846967915e-07,0.0,0.0,0.0,1.21846967915e-07,0.0,0.0,0.0,1.21846967915e-07,0.0,-0.34323275,9.8262633,9e-08,0.0,0.0,0.0,9e-08,0.0,0.0,0.0,9e-08
1783583647164042013,2858,1783583647164042013,base_link,0.0110099498727,0.0140672872881,-0.832028950041,-0.554444513659,1.0,0.0,0.0,0.0,1.0,0.0,0.0,0.0,1.0,0.00392636703327,0.000454401597381,0.0330063030124,1.21846967915e-07,0.0,0.0,0.0,1.21846967915e-07,0.0,0.0,0.0,1.21846967915e-07,0.0,-0.34323275,9.8262633,9e-08,0.0,0.0,0.0,9e-08,0.0,0.0,0.0,9e-08
1783583647164042013,2858,1783583647164042013,base_link,0.0110099498727,0.0140672872881,-0.832028950041,-0.554444513659,1.0,0.0,0.0,0.0,1.0,0.0,0.0,0.0,1.0,0.00392636703327,0.000454401597381,0.0330063030124,1.21846967915e-07,0.0,0.0,0.0,1.21846967915e-07,0.0,0.0,0.0,1.21846967915e-07,0.0,-0.34323275,9.8262633,9e-08,0.0,0.0,0.0,9e-08,0.0,0.0,0.0,9e-08
1783583647164042013,2858,1783583647164042013,base_link,0.0110099498727,0.0140672872881,-0.832028950041,-0.554444513659,1.0,0.0,0.0,0.0,1.0,0.0,0.0,0.0,1.0,0.00392636703327,0.000454401597381,0.0330063030124,1.21846967915e-07,0.0,0.0,0.0,1.21846967915e-07,0.0,0.0,0.0,1.21846967915e-07,0.0,-0.34323275,9.8262633,9e-08,0.0,0.0,0.0,9e-08,0.0,0.0,0.0,9e-08
1783583647164042013,2858,1783583647164042013,base_link,0.0110099498727,0.0140672872881,-0.832028950041,-0.554444513659,1.0,0.0,0.0,0.0,1.0,0.0,0.0,0.0,1.0,0.00392636703327,0.000454401597381,0.0330063030124,1.21846967915e-07,0.0,0.0,0.0,1.21846967915e-07,0.0,0.0,0.0,1.21846967915e-07,0.0,-0.34323275,9.8262633,9e-08,0.0,0.0,0.0,9e-08,0.0,0.0,0.0,9e-08
1783583647164042013,2858,1783583647164042013,base_link,0.0110099498727,0.0140672872881,-0.832028950041,-0.554444513659,1.0,0.0,0.0,0.0,1.0,0.0,0.0,0.0,1.0,0.00392636703327,0.000454401597381,0.0330063030124,1.21846967915e-07,0.0,0.0,0.0,1.21846967915e-07,0.0,0.0,0.0,1.21846967915e-07,0.0,-0.34323275,9.8262633,9e-08,0.0,0.0,0.0,9e-08,0.0,0.0,0.0,9e-08
1783583647164042013,2858,1783583647164042013,base_link,0.0110099498727,0.0140672872881,-0.832028950041,-0.554444513659,1.0,0.0,0.0,0.0,1.0,0.0,0.0,0.0,1.0,0.00392636703327,0.000454401597381,0.0330063030124,1.21846967915e-07,0.0,0.0,0.0,1.21846967915e-07,0.0,0.0,0.0,1.21846967915e-07,0.0,-0.34323275,9.8262633,9e-08,0.0,0.0,0.0,9e-08,0.0,0.0,0.0,9e-08
1783583647164042013,2858,1783583647164042013,base_link,0.0110099498727,0.0140672872881,-0.832028950041,-0.554444513659,1.0,0.0,0.0,0.0,1.0,0.0,0.0,0.0,1.0,0.00392636703327,0.000454401597381,0.0330063030124,1.21846967915e-07,0.0,0.0,0.0,1.21846967915e-07,0.0,0.0,0.0,1.21846967915e-07,0.0,-0.34323275,9.8262633,9e-08,0.0,0.0,0.0,9e-08,0.0,0.0,0.0,9e-08
1783583647164042013,2858,1783583647164042013,base_link,0.0110099498727,0.0140672872881,-0.832028950041,-0.554444513659,1.0,0.0,0.0,0.0,1.0,0.0,0.0,0.0,1.0,0.00392636703327,0.000454401597381,0.0330063030124,1.21846967915e-07,0.0,0.0,0.0,1.21846967915e-07,0.0,0.0,0.0,1.21846967915e-07,0.0,-0.34323275,9.8262633,9e-08,0.0,0.0,0.0,9e-08,0.0,0.0,0.0,9e-08
1783583647164042013,2858,1783583647164042013,base_link,0.0110099498727,0.0140672872881,-0.832028950041,-0.554444513659,1.0,0.0,0.0,0.0,1.0,0.0,0.0,0.0,1.0,0.00392636703327,0.000454401597381,0.0330063030124,1.21846967915e-07,0.0,0.0,0.0,1.21846967915e-07,0.0,0.0,0.0,1.21846967915e-07,0.0,-0.34323275,9.8262633,9e-08,0.0,0.0,0.0,9e-08,0.0,0.0,0.0,9e-08
1783583647164042013,2858,1783583647164042013,base_link,0.0110099498727,0.0140672872881,-0.832028950041,-0.554444513659,1.0,0.0,0.0,0.0,1.0,0.0,0.0,0.0,1.0,0.00392636703327,0.000454401597381,0.0330063030124,1.21846967915e-07,0.0,0.0,0.0,1.21846967915e-07,0.0,0.0,0.0,1.21846967915e-07,0.0,-0.34323275,9.8262633,9e-08,0.0,0.0,0.0,9e-08,0.0,0.0,0.0,9e-08
1783583647164042013,2858,1783583647164042013,base_link,0.0110099498727,0.0140672872881,-0.832028950041,-0.554444513659,1.0,0.0,0.0,0.0,1.0,0.0,0.0,0.0,1.0,0.00392636703327,0.000454401597381,0.0330063030124,1.21846967915e-07,0.0,0.0,0.0,1.21846967915e-07,0.0,0.0,0.0,1.21846967915e-07,0.0,-0.34323275,9.8262633,9e-08,0.0,0.0,0.0,9e-08,0.0,0.0,0.0,9e-08
1783583647164042013,2858,1783583647164042013,base_link,0.0110099498727,0.0140672872881,-0.832028950041,-0.554444513659,1.0,0.0,0.0,0.0,1.0,0.0,0.0,0.0,1.0,0.00392636703327,0.000454401597381,0.0330063030124,1.21846967915e-07,0.0,0.0,0.0,1.21846967915e-07,0.0,0.0,0.0,1.21846967915e-07,0.0,-0.34323275,9.8262633,9e-08,0.0,0.0,0.0,9e-08,0.0,0.0,0.0,9e-08
1783583647423041757,2859,1783583647423041757,base_link,0.0106790056338,0.0141750977036,-0.832253403694,-0.554111268144,1.0,0.0,0.0,0.0,1.0,0.0,0.0,0.0,1.0,-0.00451841717586,-0.00446589011699,-0.00155454827473,1.21846967915e-07,0.0,0.0,0.0,1.21846967915e-07,0.0,0.0,0.0,1.21846967915e-07,0.0,-0.34323275,9.8262633,9e-08,0.0,0.0,0.0,9e-08,0.0,0.0,0.0,9e-08
1783583647423041757,2859,1783583647423041757,base_link,0.0106790056338,0.0141750977036,-0.832253403694,-0.554111268144,1.0,0.0,0.0,0.0,1.0,0.0,0.0,0.0,1.0,-0.00451841717586,-0.00446589011699,-0.00155454827473,1.21846967915e-07,0.0,0.0,0.0,1.21846967915e-07,0.0,0.0,0.0,1.21846967915e-07,0.0,-0.34323275,9.8262633,9e-08,0.0,0.0,0.0,9e-08,0.0,0.0,0.0,9e-08
1783583647423041757,2859,1783583647423041757,base_link,0.0106790056338,0.0141750977036,-0.832253403694,-0.554111268144,1.0,0.0,0.0,0.0,1.0,0.0,0.0,0.0,1.0,-0.00451841717586,-0.00446589011699,-0.00155454827473,1.21846967915e-07,0.0,0.0,0.0,1.21846967915e-07,0.0,0.0,0.0,1.21846967915e-07,0.0,-0.34323275,9.8262633,9e-08,0.0,0.0,0.0,9e-08,0.0,0.0,0.0,9e-08
1783583647423041757,2859,1783583647423041757,base_link,0.0106790056338,0.0141750977036,-0.832253403694,-0.554111268144,1.0,0.0,0.0,0.0,1.0,0.0,0.0,0.0,1.0,-0.00451841717586,-0.00446589011699,-0.00155454827473,1.21846967915e-07,0.0,0.0,0.0,1.21846967915e-07,0.0,0.0,0.0,1.21846967915e-07,0.0,-0.34323275,9.8262633,9e-08,0.0,0.0,0.0,9e-08,0.0,0.0,0.0,9e-08
1783583647423041757,2859,1783583647423041757,base_link,0.0106790056338,0.0141750977036,-0.832253403694,-0.554111268144,1.0,0.0,0.0,0.0,1.0,0.0,0.0,0.0,1.0,-0.00451841717586,-0.00446589011699,-0.00155454827473,1.21846967915e-07,0.0,0.0,0.0,1.21846967915e-07,0.0,0.0,0.0,1.21846967915e-07,0.0,-0.34323275,9.8262633,9e-08,0.0,0.0,0.0,9e-08,0.0,0.0,0.0,9e-08
1783583647423041757,2859,1783583647423041757,base_link,0.0106790056338,0.0141750977036,-0.832253403694,-0.554111268144,1.0,0.0,0.0,0.0,1.0,0.0,0.0,0.0,1.0,-0.00451841717586,-0.00446589011699,-0.00155454827473,1.21846967915e-07,0.0,0.0,0.0,1.21846967915e-07,0.0,0.0,0.0,1.21846967915e-07,0.0,-0.34323275,9.8262633,9e-08,0.0,0.0,0.0,9e-08,0.0,0.0,0.0,9e-08
1783583647423041757,2859,1783583647423041757,base_link,0.0106790056338,0.0141750977036,-0.832253403694,-0.554111268144,1.0,0.0,0.0,0.0,1.0,0.0,0.0,0.0,1.0,-0.00451841717586,-0.00446589011699,-0.00155454827473,1.21846967915e-07,0.0,0.0,0.0,1.21846967915e-07,0.0,0.0,0.0,1.21846967915e-07,0.0,-0.34323275,9.8262633,9e-08,0.0,0.0,0.0,9e-08,0.0,0.0,0.0,9e-08
1783583647423041757,2859,1783583647423041757,base_link,0.0106790056338,0.0141750977036,-0.832253403694,-0.554111268144,1.0,0.0,0.0,0.0,1.0,0.0,0.0,0.0,1.0,-0.00451841717586,-0.00446589011699,-0.00155454827473,1.21846967915e-07,0.0,0.0,0.0,1.21846967915e-07,0.0,0.0,0.0,1.21846967915e-07,0.0,-0.34323275,9.8262633,9e-08,0.0,0.0,0.0,9e-08,0.0,0.0,0.0,9e-08
1783583647423041757,2859,1783583647423041757,base_link,0.0106790056338,0.0141750977036,-0.832253403694,-0.554111268144,1.0,0.0,0.0,0.0,1.0,0.0,0.0,0.0,1.0,-0.00451841717586,-0.00446589011699,-0.00155454827473,1.21846967915e-07,0.0,0.0,0.0,1.21846967915e-07,0.0,0.0,0.0,1.21846967915e-07,0.0,-0.34323275,9.8262633,9e-08,0.0,0.0,0.0,9e-08,0.0,0.0,0.0,9e-08
1783583647423041757,2859,1783583647423041757,base_link,0.0106790056338,0.0141750977036,-0.832253403694,-0.554111268144,1.0,0.0,0.0,0.0,1.0,0.0,0.0,0.0,1.0,-0.00451841717586,-0.00446589011699,-0.00155454827473,1.21846967915e-07,0.0,0.0,0.0,1.21846967915e-07,0.0,0.0,0.0,1.21846967915e-07,0.0,-0.34323275,9.8262633,9e-08,0.0,0.0,0.0,9e-08,0.0,0.0,0.0,9e-08
1783583647423041757,2859,1783583647423041757,base_link,0.0106790056338,0.0141750977036,-0.832253403694,-0.554111268144,1.0,0.0,0.0,0.0,1.0,0.0,0.0,0.0,1.0,-0.00451841717586,-0.00446589011699,-0.00155454827473,1.21846967915e-07,0.0,0.0,0.0,1.21846967915e-07,0.0,0.0,0.0,1.21846967915e-07,0.0,-0.34323275,9.8262633,9e-08,0.0,0.0,0.0,9e-08,0.0,0.0,0.0,9e-08
1783583647423041757,2859,1783583647423041757,base_link,0.0106790056338,0.0141750977036,-0.832253403694,-0.554111268144,1.0,0.0,0.0,0.0,1.0,0.0,0.0,0.0,1.0,-0.00451841717586,-0.00446589011699,-0.00155454827473,1.21846967915e-07,0.0,0.0,0.0,1.21846967915e-07,0.0,0.0,0.0,1.21846967915e-07,0.0,-0.34323275,9.8262633,9e-08,0.0,0.0,0.0,9e-08,0.0,0.0,0.0,9e-08
1783583647423041757,2859,1783583647423041757,base_link,0.0106790056338,0.0141750977036,-0.832253403694,-0.554111268144,1.0,0.0,0.0,0.0,1.0,0.0,0.0,0.0,1.0,-0.00451841717586,-0.00446589011699,-0.00155454827473,1.21846967915e-07,0.0,0.0,0.0,1.21846967915e-07,0.0,0.0,0.0,1.21846967915e-07,0.0,-0.34323275,9.8262633,9e-08,0.0,0.0,0.0,9e-08,0.0,0.0,0.0,9e-08
1783583647423041757,2859,1783583647423041757,base_link,0.0106790056338,0.0141750977036,-0.832253403694,-0.554111268144,1.0,0.0,0.0,0.0,1.0,0.0,0.0,0.0,1.0,-0.00451841717586,-0.00446589011699,-0.00155454827473,1.21846967915e-07,0.0,0.0,0.0,1.21846967915e-07,0.0,0.0,0.0,1.21846967915e-07,0.0,-0.34323275,9.8262633,9e-08,0.0,0.0,0.0,9e-08,0.0,0.0,0.0,9e-08
1783583647423041757,2859,1783583647423041757,base_link,0.0106790056338,0.0141750977036,-0.832253403694,-0.554111268144,1.0,0.0,0.0,0.0,1.0,0.0,0.0,0.0,1.0,-0.00451841717586,-0.00446589011699,-0.00155454827473,1.21846967915e-07,0.0,0.0,0.0,1.21846967915e-07,0.0,0.0,0.0,1.21846967915e-07,0.0,-0.34323275,9.8262633,9e-08,0.0,0.0,0.0,9e-08,0.0,0.0,0.0,9e-08
1783583647423041757,2859,1783583647423041757,base_link,0.0106790056338,0.0141750977036,-0.832253403694,-0.554111268144,1.0,0.0,0.0,0.0,1.0,0.0,0.0,0.0,1.0,-0.00451841717586,-0.00446589011699,-0.00155454827473,1.21846967915e-07,0.0,0.0,0.0,1.21846967915e-07,0.0,0.0,0.0,1.21846967915e-07,0.0,-0.34323275,9.8262633,9e-08,0.0,0.0,0.0,9e-08,0.0,0.0,0.0,9e-08
1783583647423041757,2859,1783583647423041757,base_link,0.0106790056338,0.0141750977036,-0.832253403694,-0.554111268144,1.0,0.0,0.0,0.0,1.0,0.0,0.0,0.0,1.0,-0.00451841717586,-0.00446589011699,-0.00155454827473,1.21846967915e-07,0.0,0.0,0.0,1.21846967915e-07,0.0,0.0,0.0,1.21846967915e-07,0.0,-0.34323275,9.8262633,9e-08,0.0,0.0,0.0,9e-08,0.0,0.0,0.0,9e-08
1783583647423041757,2859,1783583647423041757,base_link,0.0106790056338,0.0141750977036,-0.832253403694,-0.554111268144,1.0,0.0,0.0,0.0,1.0,0.0,0.0,0.0,1.0,-0.00451841717586,-0.00446589011699,-0.00155454827473,1.21846967915e-07,0.0,0.0,0.0,1.21846967915e-07,0.0,0.0,0.0,1.21846967915e-07,0.0,-0.34323275,9.8262633,9e-08,0.0,0.0,0.0,9e-08,0.0,0.0,0.0,9e-08
1783583647423041757,2859,1783583647423041757,base_link,0.0106790056338,0.0141750977036,-0.832253403694,-0.554111268144,1.0,0.0,0.0,0.0,1.0,0.0,0.0,0.0,1.0,-0.00451841717586,-0.00446589011699,-0.00155454827473,1.21846967915e-07,0.0,0.0,0.0,1.21846967915e-07,0.0,0.0,0.0,1.21846967915e-07,0.0,-0.34323275,9.8262633,9e-08,0.0,0.0,0.0,9e-08,0.0,0.0,0.0,9e-08
1783583647423041757,2859,1783583647423041757,base_link,0.0106790056338,0.0141750977036,-0.832253403694,-0.554111268144,1.0,0.0,0.0,0.0,1.0,0.0,0.0,0.0,1.0,-0.00451841717586,-0.00446589011699,-0.00155454827473,1.21846967915e-07,0.0,0.0,0.0,1.21846967915e-07,0.0,0.0,0.0,1.21846967915e-07,0.0,-0.34323275,9.8262633,9e-08,0.0,0.0,0.0,9e-08,0.0,0.0,0.0,9e-08
1783583647423041757,2859,1783583647423041757,base_link,0.0106790056338,0.0141750977036,-0.832253403694,-0.554111268144,1.0,0.0,0.0,0.0,1.0,0.0,0.0,0.0,1.0,-0.00451841717586,-0.00446589011699,-0.00155454827473,1.21846967915e-07,0.0,0.0,0.0,1.21846967915e-07,0.0,0.0,0.0,1.21846967915e-07,0.0,-0.34323275,9.8262633,9e-08,0.0,0.0,0.0,9e-08,0.0,0.0,0.0,9e-08
1783583647423041757,2859,1783583647423041757,base_link,0.0106790056338,0.0141750977036,-0.832253403694,-0.554111268144,1.0,0.0,0.0,0.0,1.0,0.0,0.0,0.0,1.0,-0.00451841717586,-0.00446589011699,-0.00155454827473,1.21846967915e-07,0.0,0.0,0.0,1.21846967915e-07,0.0,0.0,0.0,1.21846967915e-07,0.0,-0.34323275,9.8262633,9e-08,0.0,0.0,0.0,9e-08,0.0,0.0,0.0,9e-08
1783583647423041757,2859,1783583647423041757,base_link,0.0106790056338,0.0141750977036,-0.832253403694,-0.554111268144,1.0,0.0,0.0,0.0,1.0,0.0,0.0,0.0,1.0,-0.00451841717586,-0.00446589011699,-0.00155454827473,1.21846967915e-07,0.0,0.0,0.0,1.21846967915e-07,0.0,0.0,0.0,1.21846967915e-07,0.0,-0.34323275,9.8262633,9e-08,0.0,0.0,0.0,9e-08,0.0,0.0,0.0,9e-08
1783583647423041757,2859,1783583647423041757,base_link,0.0106790056338,0.0141750977036,-0.832253403694,-0.554111268144,1.0,0.0,0.0,0.0,1.0,0.0,0.0,0.0,1.0,-0.00451841717586,-0.00446589011699,-0.00155454827473,1.21846967915e-07,0.0,0.0,0.0,1.21846967915e-07,0.0,0.0,0.0,1.21846967915e-07,0.0,-0.34323275,9.8262633,9e-08,0.0,0.0,0.0,9e-08,0.0,0.0,0.0,9e-08
1783583647664313058,2860,1783583647664313058,base_link,0.0109922265479,0.0146913098889,-0.835984796183,-0.548445764793,1.0,0.0,0.0,0.0,1.0,0.0,0.0,0.0,1.0,0.0155215896666,0.00325211789459,-0.0100845042616,1.21846967915e-07,0.0,0.0,0.0,1.21846967915e-07,0.0,0.0,0.0,1.21846967915e-07,-0.00980665,-0.5687857,9.7870367,9e-08,0.0,0.0,0.0,9e-08,0.0,0.0,0.0,9e-08
1783583647664313058,2860,1783583647664313058,base_link,0.0109922265479,0.0146913098889,-0.835984796183,-0.548445764793,1.0,0.0,0.0,0.0,1.0,0.0,0.0,0.0,1.0,0.0155215896666,0.00325211789459,-0.0100845042616,1.21846967915e-07,0.0,0.0,0.0,1.21846967915e-07,0.0,0.0,0.0,1.21846967915e-07,-0.00980665,-0.5687857,9.7870367,9e-08,0.0,0.0,0.0,9e-08,0.0,0.0,0.0,9e-08
1783583647664313058,2860,1783583647664313058,base_link,0.0109922265479,0.0146913098889,-0.835984796183,-0.548445764793,1.0,0.0,0.0,0.0,1.0,0.0,0.0,0.0,1.0,0.0155215896666,0.00325211789459,-0.0100845042616,1.21846967915e-07,0.0,0.0,0.0,1.21846967915e-07,0.0,0.0,0.0,1.21846967915e-07,-0.00980665,-0.5687857,9.7870367,9e-08,0.0,0.0,0.0,9e-08,0.0,0.0,0.0,9e-08
1783583647664313058,2860,1783583647664313058,base_link,0.0109922265479,0.0146913098889,-0.835984796183,-0.548445764793,1.0,0.0,0.0,0.0,1.0,0.0,0.0,0.0,1.0,0.0155215896666,0.00325211789459,-0.0100845042616,1.21846967915e-07,0.0,0.0,0.0,1.21846967915e-07,0.0,0.0,0.0,1.21846967915e-07,-0.00980665,-0.5687857,9.7870367,9e-08,0.0,0.0,0.0,9e-08,0.0,0.0,0.0,9e-08
1783583647664313058,2860,1783583647664313058,base_link,0.0109922265479,0.0146913098889,-0.835984796183,-0.548445764793,1.0,0.0,0.0,0.0,1.0,0.0,0.0,0.0,1.0,0.0155215896666,0.00325211789459,-0.0100845042616,1.21846967915e-07,0.0,0.0,0.0,1.21846967915e-07,0.0,0.0,0.0,1.21846967915e-07,-0.00980665,-0.5687857,9.7870367,9e-08,0.0,0.0,0.0,9e-08,0.0,0.0,0.0,9e-08
1783583647664313058,2860,1783583647664313058,base_link,0.0109922265479,0.0146913098889,-0.835984796183,-0.548445764793,1.0,0.0,0.0,0.0,1.0,0.0,0.0,0.0,1.0,0.0155215896666,0.00325211789459,-0.0100845042616,1.21846967915e-07,0.0,0.0,0.0,1.21846967915e-07,0.0,0.0,0.0,1.21846967915e-07,-0.00980665,-0.5687857,9.7870367,9e-08,0.0,0.0,0.0,9e-08,0.0,0.0,0.0,9e-08
1783583647664313058,2860,1783583647664313058,base_link,0.0109922265479,0.0146913098889,-0.835984796183,-0.548445764793,1.0,0.0,0.0,0.0,1.0,0.0,0.0,0.0,1.0,0.0155215896666,0.00325211789459,-0.0100845042616,1.21846967915e-07,0.0,0.0,0.0,1.21846967915e-07,0.0,0.0,0.0,1.21846967915e-07,-0.00980665,-0.5687857,9.7870367,9e-08,0.0,0.0,0.0,9e-08,0.0,0.0,0.0,9e-08
1783583647664313058,2860,1783583647664313058,base_link,0.0109922265479,0.0146913098889,-0.835984796183,-0.548445764793,1.0,0.0,0.0,0.0,1.0,0.0,0.0,0.0,1.0,0.0155215896666,0.00325211789459,-0.0100845042616,1.21846967915e-07,0.0,0.0,0.0,1.21846967915e-07,0.0,0.0,0.0,1.21846967915e-07,-0.00980665,-0.5687857,9.7870367,9e-08,0.0,0.0,0.0,9e-08,0.0,0.0,0.0,9e-08
1783583647664313058,2860,1783583647664313058,base_link,0.0109922265479,0.0146913098889,-0.835984796183,-0.548445764793,1.0,0.0,0.0,0.0,1.0,0.0,0.0,0.0,1.0,0.0155215896666,0.00325211789459,-0.0100845042616,1.21846967915e-07,0.0,0.0,0.0,1.21846967915e-07,0.0,0.0,0.0,1.21846967915e-07,-0.00980665,-0.5687857,9.7870367,9e-08,0.0,0.0,0.0,9e-08,0.0,0.0,0.0,9e-08
1783583647664313058,2860,1783583647664313058,base_link,0.0109922265479,0.0146913098889,-0.835984796183,-0.548445764793,1.0,0.0,0.0,0.0,1.0,0.0,0.0,0.0,1.0,0.0155215896666,0.00325211789459,-0.0100845042616,1.21846967915e-07,0.0,0.0,0.0,1.21846967915e-07,0.0,0.0,0.0,1.21846967915e-07,-0.00980665,-0.5687857,9.7870367,9e-08,0.0,0.0,0.0,9e-08,0.0,0.0,0.0,9e-08
1783583647664313058,2860,1783583647664313058,base_link,0.0109922265479,0.0146913098889,-0.835984796183,-0.548445764793,1.0,0.0,0.0,0.0,1.0,0.0,0.0,0.0,1.0,0.0155215896666,0.00325211789459,-0.0100845042616,1.21846967915e-07,0.0,0.0,0.0,1.21846967915e-07,0.0,0.0,0.0,1.21846967915e-07,-0.00980665,-0.5687857,9.7870367,9e-08,0.0,0.0,0.0,9e-08,0.0,0.0,0.0,9e-08
1783583647664313058,2860,1783583647664313058,base_link,0.0109922265479,0.0146913098889,-0.835984796183,-0.548445764793,1.0,0.0,0.0,0.0,1.0,0.0,0.0,0.0,1.0,0.0155215896666,0.00325211789459,-0.0100845042616,1.21846967915e-07,0.0,0.0,0.0,1.21846967915e-07,0.0,0.0,0.0,1.21846967915e-07,-0.00980665,-0.5687857,9.7870367,9e-08,0.0,0.0,0.0,9e-08,0.0,0.0,0.0,9e-08
1783583647664313058,2860,1783583647664313058,base_link,0.0109922265479,0.0146913098889,-0.835984796183,-0.548445764793,1.0,0.0,0.0,0.0,1.0,0.0,0.0,0.0,1.0,0.0155215896666,0.00325211789459,-0.0100845042616,1.21846967915e-07,0.0,0.0,0.0,1.21846967915e-07,0.0,0.0,0.0,1.21846967915e-07,-0.00980665,-0.5687857,9.7870367,9e-08,0.0,0.0,0.0,9e-08,0.0,0.0,0.0,9e-08
1783583647664313058,2860,1783583647664313058,base_link,0.0109922265479,0.0146913098889,-0.835984796183,-0.548445764793,1.0,0.0,0.0,0.0,1.0,0.0,0.0,0.0,1.0,0.0155215896666,0.00325211789459,-0.0100845042616,1.21846967915e-07,0.0,0.0,0.0,1.21846967915e-07,0.0,0.0,0.0,1.21846967915e-07,-0.00980665,-0.5687857,9.7870367,9e-08,0.0,0.0,0.0,9e-08,0.0,0.0,0.0,9e-08
1783583647664313058,2860,1783583647664313058,base_link,0.0109922265479,0.0146913098889,-0.835984796183,-0.548445764793,1.0,0.0,0.0,0.0,1.0,0.0,0.0,0.0,1.0,0.0155215896666,0.00325211789459,-0.0100845042616,1.21846967915e-07,0.0,0.0,0.0,1.21846967915e-07,0.0,0.0,0.0,1.21846967915e-07,-0.00980665,-0.5687857,9.7870367,9e-08,0.0,0.0,0.0,9e-08,0.0,0.0,0.0,9e-08
1783583647664313058,2860,1783583647664313058,base_link,0.0109922265479,0.0146913098889,-0.835984796183,-0.548445764793,1.0,0.0,0.0,0.0,1.0,0.0,0.0,0.0,1.0,0.0155215896666,0.00325211789459,-0.0100845042616,1.21846967915e-07,0.0,0.0,0.0,1.21846967915e-07,0.0,0.0,0.0,1.21846967915e-07,-0.00980665,-0.5687857,9.7870367,9e-08,0.0,0.0,0.0,9e-08,0.0,0.0,0.0,9e-08
1783583647664313058,2860,1783583647664313058,base_link,0.0109922265479,0.0146913098889,-0.835984796183,-0.548445764793,1.0,0.0,0.0,0.0,1.0,0.0,0.0,0.0,1.0,0.0155215896666,0.00325211789459,-0.0100845042616,1.21846967915e-07,0.0,0.0,0.0,1.21846967915e-07,0.0,0.0,0.0,1.21846967915e-07,-0.00980665,-0.5687857,9.7870367,9e-08,0.0,0.0,0.0,9e-08,0.0,0.0,0.0,9e-08
1783583647664313058,2860,1783583647664313058,base_link,0.0109922265479,0.0146913098889,-0.835984796183,-0.548445764793,1.0,0.0,0.0,0.0,1.0,0.0,0.0,0.0,1.0,0.0155215896666,0.00325211789459,-0.0100845042616,1.21846967915e-07,0.0,0.0,0.0,1.21846967915e-07,0.0,0.0,0.0,1.21846967915e-07,-0.00980665,-0.5687857,9.7870367,9e-08,0.0,0.0,0.0,9e-08,0.0,0.0,0.0,9e-08
1783583647664313058,2860,1783583647664313058,base_link,0.0109922265479,0.0146913098889,-0.835984796183,-0.548445764793,1.0,0.0,0.0,0.0,1.0,0.0,0.0,0.0,1.0,0.0155215896666,0.00325211789459,-0.0100845042616,1.21846967915e-07,0.0,0.0,0.0,1.21846967915e-07,0.0,0.0,0.0,1.21846967915e-07,-0.00980665,-0.5687857,9.7870367,9e-08,0.0,0.0,0.0,9e-08,0.0,0.0,0.0,9e-08
1783583647664313058,2860,1783583647664313058,base_link,0.0109922265479,0.0146913098889,-0.835984796183,-0.548445764793,1.0,0.0,0.0,0.0,1.0,0.0,0.0,0.0,1.0,0.0155215896666,0.00325211789459,-0.0100845042616,1.21846967915e-07,0.0,0.0,0.0,1.21846967915e-07,0.0,0.0,0.0,1.21846967915e-07,-0.00980665,-0.5687857,9.7870367,9e-08,0.0,0.0,0.0,9e-08,0.0,0.0,0.0,9e-08
1783583647664313058,2860,1783583647664313058,base_link,0.0109922265479,0.0146913098889,-0.835984796183,-0.548445764793,1.0,0.0,0.0,0.0,1.0,0.0,0.0,0.0,1.0,0.0155215896666,0.00325211789459,-0.0100845042616,1.21846967915e-07,0.0,0.0,0.0,1.21846967915e-07,0.0,0.0,0.0,1.21846967915e-07,-0.00980665,-0.5687857,9.7870367,9e-08,0.0,0.0,0.0,9e-08,0.0,0.0,0.0,9e-08
1783583647664313058,2860,1783583647664313058,base_link,0.0109922265479,0.0146913098889,-0.835984796183,-0.548445764793,1.0,0.0,0.0,0.0,1.0,0.0,0.0,0.0,1.0,0.0155215896666,0.00325211789459,-0.0100845042616,1.21846967915e-07,0.0,0.0,0.0,1.21846967915e-07,0.0,0.0,0.0,1.21846967915e-07,-0.00980665,-0.5687857,9.7870367,9e-08,0.0,0.0,0.0,9e-08,0.0,0.0,0.0,9e-08
1783583647664313058,2860,1783583647664313058,base_link,0.0109922265479,0.0146913098889,-0.835984796183,-0.548445764793,1.0,0.0,0.0,0.0,1.0,0.0,0.0,0.0,1.0,0.0155215896666,0.00325211789459,-0.0100845042616,1.21846967915e-07,0.0,0.0,0.0,1.21846967915e-07,0.0,0.0,0.0,1.21846967915e-07,-0.00980665,-0.5687857,9.7870367,9e-08,0.0,0.0,0.0,9e-08,0.0,0.0,0.0,9e-08
1783583647664313058,2860,1783583647664313058,base_link,0.0109922265479,0.0146913098889,-0.835984796183,-0.548445764793,1.0,0.0,0.0,0.0,1.0,0.0,0.0,0.0,1.0,0.0155215896666,0.00325211789459,-0.0100845042616,1.21846967915e-07,0.0,0.0,0.0,1.21846967915e-07,0.0,0.0,0.0,1.21846967915e-07,-0.00980665,-0.5687857,9.7870367,9e-08,0.0,0.0,0.0,9e-08,0.0,0.0,0.0,9e-08
1783583647664313058,2860,1783583647664313058,base_link,0.0109922265479,0.0146913098889,-0.835984796183,-0.548445764793,1.0,0.0,0.0,0.0,1.0,0.0,0.0,0.0,1.0,0.0155215896666,0.00325211789459,-0.0100845042616,1.21846967915e-07,0.0,0.0,0.0,1.21846967915e-07,0.0,0.0,0.0,1.21846967915e-07,-0.00980665,-0.5687857,9.7870367,9e-08,0.0,0.0,0.0,9e-08,0.0,0.0,0.0,9e-08
1783583647664313058,2860,1783583647664313058,base_link,0.0109922265479,0.0146913098889,-0.835984796183,-0.548445764793,1.0,0.0,0.0,0.0,1.0,0.0,0.0,0.0,1.0,0.0155215896666,0.00325211789459,-0.0100845042616,1.21846967915e-07,0.0,0.0,0.0,1.21846967915e-07,0.0,0.0,0.0,1.21846967915e-07,-0.00980665,-0.5687857,9.7870367,9e-08,0.0,0.0,0.0,9e-08,0.0,0.0,0.0,9e-08
1783583647923312546,2861,1783583647923312546,base_link,0.0121499092116,0.0156584459345,-0.83984327042,-0.542467025641,1.0,0.0,0.0,0.0,1.0,0.0,0.0,0.0,1.0,-0.0561737790704,0.000192274339497,0.235323876143,1.21846967915e-07,0.0,0.0,0.0,1.21846967915e-07,0.0,0.0,0.0,1.21846967915e-07,-0.00980665,-0.5687857,9.7870367,9e-08,0.0,0.0,0.0,9e-08,0.0,0.0,0.0,9e-08
1783583647923312546,2861,1783583647923312546,base_link,0.0121499092116,0.0156584459345,-0.83984327042,-0.542467025641,1.0,0.0,0.0,0.0,1.0,0.0,0.0,0.0,1.0,-0.0561737790704,0.000192274339497,0.235323876143,1.21846967915e-07,0.0,0.0,0.0,1.21846967915e-07,0.0,0.0,0.0,1.21846967915e-07,-0.00980665,-0.5687857,9.7870367,9e-08,0.0,0.0,0.0,9e-08,0.0,0.0,0.0,9e-08
1783583647923312546,2861,1783583647923312546,base_link,0.0121499092116,0.0156584459345,-0.83984327042,-0.542467025641,1.0,0.0,0.0,0.0,1.0,0.0,0.0,0.0,1.0,-0.0561737790704,0.000192274339497,0.235323876143,1.21846967915e-07,0.0,0.0,0.0,1.21846967915e-07,0.0,0.0,0.0,1.21846967915e-07,-0.00980665,-0.5687857,9.7870367,9e-08,0.0,0.0,0.0,9e-08,0.0,0.0,0.0,9e-08
1783583647923312546,2861,1783583647923312546,base_link,0.0121499092116,0.0156584459345,-0.83984327042,-0.542467025641,1.0,0.0,0.0,0.0,1.0,0.0,0.0,0.0,1.0,-0.0561737790704,0.000192274339497,0.235323876143,1.21846967915e-07,0.0,0.0,0.0,1.21846967915e-07,0.0,0.0,0.0,1.21846967915e-07,-0.00980665,-0.5687857,9.7870367,9e-08,0.0,0.0,0.0,9e-08,0.0,0.0,0.0,9e-08
1783583647923312546,2861,1783583647923312546,base_link,0.0121499092116,0.0156584459345,-0.83984327042,-0.542467025641,1.0,0.0,0.0,0.0,1.0,0.0,0.0,0.0,1.0,-0.0561737790704,0.000192274339497,0.235323876143,1.21846967915e-07,0.0,0.0,0.0,1.21846967915e-07,0.0,0.0,0.0,1.21846967915e-07,-0.00980665,-0.5687857,9.7870367,9e-08,0.0,0.0,0.0,9e-08,0.0,0.0,0.0,9e-08
1783583647923312546,2861,1783583647923312546,base_link,0.0121499092116,0.0156584459345,-0.83984327042,-0.542467025641,1.0,0.0,0.0,0.0,1.0,0.0,0.0,0.0,1.0,-0.0561737790704,0.000192274339497,0.235323876143,1.21846967915e-07,0.0,0.0,0.0,1.21846967915e-07,0.0,0.0,0.0,1.21846967915e-07,-0.00980665,-0.5687857,9.7870367,9e-08,0.0,0.0,0.0,9e-08,0.0,0.0,0.0,9e-08
1783583647923312546,2861,1783583647923312546,base_link,0.0121499092116,0.0156584459345,-0.83984327042,-0.542467025641,1.0,0.0,0.0,0.0,1.0,0.0,0.0,0.0,1.0,-0.0561737790704,0.000192274339497,0.235323876143,1.21846967915e-07,0.0,0.0,0.0,1.21846967915e-07,0.0,0.0,0.0,1.21846967915e-07,-0.00980665,-0.5687857,9.7870367,9e-08,0.0,0.0,0.0,9e-08,0.0,0.0,0.0,9e-08
1783583647923312546,2861,1783583647923312546,base_link,0.0121499092116,0.0156584459345,-0.83984327042,-0.542467025641,1.0,0.0,0.0,0.0,1.0,0.0,0.0,0.0,1.0,-0.0561737790704,0.000192274339497,0.235323876143,1.21846967915e-07,0.0,0.0,0.0,1.21846967915e-07,0.0,0.0,0.0,1.21846967915e-07,-0.00980665,-0.5687857,9.7870367,9e-08,0.0,0.0,0.0,9e-08,0.0,0.0,0.0,9e-08
1783583647923312546,2861,1783583647923312546,base_link,0.0121499092116,0.0156584459345,-0.83984327042,-0.542467025641,1.0,0.0,0.0,0.0,1.0,0.0,0.0,0.0,1.0,-0.0561737790704,0.000192274339497,0.235323876143,1.21846967915e-07,0.0,0.0,0.0,1.21846967915e-07,0.0,0.0,0.0,1.21846967915e-07,-0.00980665,-0.5687857,9.7870367,9e-08,0.0,0.0,0.0,9e-08,0.0,0.0,0.0,9e-08
1783583647923312546,2861,1783583647923312546,base_link,0.0121499092116,0.0156584459345,-0.83984327042,-0.542467025641,1.0,0.0,0.0,0.0,1.0,0.0,0.0,0.0,1.0,-0.0561737790704,0.000192274339497,0.235323876143,1.21846967915e-07,0.0,0.0,0.0,1.21846967915e-07,0.0,0.0,0.0,1.21846967915e-07,-0.00980665,-0.5687857,9.7870367,9e-08,0.0,0.0,0.0,9e-08,0.0,0.0,0.0,9e-08
1783583647923312546,2861,1783583647923312546,base_link,0.0121499092116,0.0156584459345,-0.83984327042,-0.542467025641,1.0,0.0,0.0,0.0,1.0,0.0,0.0,0.0,1.0,-0.0561737790704,0.000192274339497,0.235323876143,1.21846967915e-07,0.0,0.0,0.0,1.21846967915e-07,0.0,0.0,0.0,1.21846967915e-07,-0.00980665,-0.5687857,9.7870367,9e-08,0.0,0.0,0.0,9e-08,0.0,0.0,0.0,9e-08
1783583647923312546,2861,1783583647923312546,base_link,0.0121499092116,0.0156584459345,-0.83984327042,-0.542467025641,1.0,0.0,0.0,0.0,1.0,0.0,0.0,0.0,1.0,-0.0561737790704,0.000192274339497,0.235323876143,1.21846967915e-07,0.0,0.0,0.0,1.21846967915e-07,0.0,0.0,0.0,1.21846967915e-07,-0.00980665,-0.5687857,9.7870367,9e-08,0.0,0.0,0.0,9e-08,0.0,0.0,0.0,9e-08
1783583647923312546,2861,1783583647923312546,base_link,0.0121499092116,0.0156584459345,-0.83984327042,-0.542467025641,1.0,0.0,0.0,0.0,1.0,0.0,0.0,0.0,1.0,-0.0561737790704,0.000192274339497,0.235323876143,1.21846967915e-07,0.0,0.0,0.0,1.21846967915e-07,0.0,0.0,0.0,1.21846967915e-07,-0.00980665,-0.5687857,9.7870367,9e-08,0.0,0.0,0.0,9e-08,0.0,0.0,0.0,9e-08
1783583647923312546,2861,1783583647923312546,base_link,0.0121499092116,0.0156584459345,-0.83984327042,-0.542467025641,1.0,0.0,0.0,0.0,1.0,0.0,0.0,0.0,1.0,-0.0561737790704,0.000192274339497,0.235323876143,1.21846967915e-07,0.0,0.0,0.0,1.21846967915e-07,0.0,0.0,0.0,1.21846967915e-07,-0.00980665,-0.5687857,9.7870367,9e-08,0.0,0.0,0.0,9e-08,0.0,0.0,0.0,9e-08
1783583647923312546,2861,1783583647923312546,base_link,0.0121499092116,0.0156584459345,-0.83984327042,-0.542467025641,1.0,0.0,0.0,0.0,1.0,0.0,0.0,0.0,1.0,-0.0561737790704,0.000192274339497,0.235323876143,1.21846967915e-07,0.0,0.0,0.0,1.21846967915e-07,0.0,0.0,0.0,1.21846967915e-07,-0.00980665,-0.5687857,9.7870367,9e-08,0.0,0.0,0.0,9e-08,0.0,0.0,0.0,9e-08
1783583647923312546,2861,1783583647923312546,base_link,0.0121499092116,0.0156584459345,-0.83984327042,-0.542467025641,1.0,0.0,0.0,0.0,1.0,0.0,0.0,0.0,1.0,-0.0561737790704,0.000192274339497,0.235323876143,1.21846967915e-07,0.0,0.0,0.0,1.21846967915e-07,0.0,0.0,0.0,1.21846967915e-07,-0.00980665,-0.5687857,9.7870367,9e-08,0.0,0.0,0.0,9e-08,0.0,0.0,0.0,9e-08
1783583647923312546,2861,1783583647923312546,base_link,0.0121499092116,0.0156584459345,-0.83984327042,-0.542467025641,1.0,0.0,0.0,0.0,1.0,0.0,0.0,0.0,1.0,-0.0561737790704,0.000192274339497,0.235323876143,1.21846967915e-07,0.0,0.0,0.0,1.21846967915e-07,0.0,0.0,0.0,1.21846967915e-07,-0.00980665,-0.5687857,9.7870367,9e-08,0.0,0.0,0.0,9e-08,0.0,0.0,0.0,9e-08
1783583647923312546,2861,1783583647923312546,base_link,0.0121499092116,0.0156584459345,-0.83984327042,-0.542467025641,1.0,0.0,0.0,0.0,1.0,0.0,0.0,0.0,1.0,-0.0561737790704,0.000192274339497,0.235323876143,1.21846967915e-07,0.0,0.0,0.0,1.21846967915e-07,0.0,0.0,0.0,1.21846967915e-07,-0.00980665,-0.5687857,9.7870367,9e-08,0.0,0.0,0.0,9e-08,0.0,0.0,0.0,9e-08
1783583647923312546,2861,1783583647923312546,base_link,0.0121499092116,0.0156584459345,-0.83984327042,-0.542467025641,1.0,0.0,0.0,0.0,1.0,0.0,0.0,0.0,1.0,-0.0561737790704,0.000192274339497,0.235323876143,1.21846967915e-07,0.0,0.0,0.0,1.21846967915e-07,0.0,0.0,0.0,1.21846967915e-07,-0.00980665,-0.5687857,9.7870367,9e-08,0.0,0.0,0.0,9e-08,0.0,0.0,0.0,9e-08
1783583647923312546,2861,1783583647923312546,base_link,0.0121499092116,0.0156584459345,-0.83984327042,-0.542467025641,1.0,0.0,0.0,0.0,1.0,0.0,0.0,0.0,1.0,-0.0561737790704,0.000192274339497,0.235323876143,1.21846967915e-07,0.0,0.0,0.0,1.21846967915e-07,0.0,0.0,0.0,1.21846967915e-07,-0.00980665,-0.5687857,9.7870367,9e-08,0.0,0.0,0.0,9e-08,0.0,0.0,0.0,9e-08
1783583647923312546,2861,1783583647923312546,base_link,0.0121499092116,0.0156584459345,-0.83984327042,-0.542467025641,1.0,0.0,0.0,0.0,1.0,0.0,0.0,0.0,1.0,-0.0561737790704,0.000192274339497,0.235323876143,1.21846967915e-07,0.0,0.0,0.0,1.21846967915e-07,0.0,0.0,0.0,1.21846967915e-07,-0.00980665,-0.5687857,9.7870367,9e-08,0.0,0.0,0.0,9e-08,0.0,0.0,0.0,9e-08
1783583647923312546,2861,1783583647923312546,base_link,0.0121499092116,0.0156584459345,-0.83984327042,-0.542467025641,1.0,0.0,0.0,0.0,1.0,0.0,0.0,0.0,1.0,-0.0561737790704,0.000192274339497,0.235323876143,1.21846967915e-07,0.0,0.0,0.0,1.21846967915e-07,0.0,0.0,0.0,1.21846967915e-07,-0.00980665,-0.5687857,9.7870367,9e-08,0.0,0.0,0.0,9e-08,0.0,0.0,0.0,9e-08
1783583647923312546,2861,1783583647923312546,base_link,0.0121499092116,0.0156584459345,-0.83984327042,-0.542467025641,1.0,0.0,0.0,0.0,1.0,0.0,0.0,0.0,1.0,-0.0561737790704,0.000192274339497,0.235323876143,1.21846967915e-07,0.0,0.0,0.0,1.21846967915e-07,0.0,0.0,0.0,1.21846967915e-07,-0.00980665,-0.5687857,9.7870367,9e-08,0.0,0.0,0.0,9e-08,0.0,0.0,0.0,9e-08
1783583647923312546,2861,1783583647923312546,base_link,0.0121499092116,0.0156584459345,-0.83984327042,-0.542467025641,1.0,0.0,0.0,0.0,1.0,0.0,0.0,0.0,1.0,-0.0561737790704,0.000192274339497,0.235323876143,1.21846967915e-07,0.0,0.0,0.0,1.21846967915e-07,0.0,0.0,0.0,1.21846967915e-07,-0.00980665,-0.5687857,9.7870367,9e-08,0.0,0.0,0.0,9e-08,0.0,0.0,0.0,9e-08
1783583648164196988,2862,1783583648164196988,base_link,0.0106858112755,0.0131767720533,-0.836535230647,-0.547650430477,1.0,0.0,0.0,0.0,1.0,0.0,0.0,0.0,1.0,0.04627372697,3.73311340809e-05,-0.156774401665,1.21846967915e-07,0.0,0.0,0.0,1.21846967915e-07,0.0,0.0,0.0,1.21846967915e-07,-0.02941995,-0.2549729,9.85568325,9e-08,0.0,0.0,0.0,9e-08,0.0,0.0,0.0,9e-08
1783583648164196988,2862,1783583648164196988,base_link,0.0106858112755,0.0131767720533,-0.836535230647,-0.547650430477,1.0,0.0,0.0,0.0,1.0,0.0,0.0,0.0,1.0,0.04627372697,3.73311340809e-05,-0.156774401665,1.21846967915e-07,0.0,0.0,0.0,1.21846967915e-07,0.0,0.0,0.0,1.21846967915e-07,-0.02941995,-0.2549729,9.85568325,9e-08,0.0,0.0,0.0,9e-08,0.0,0.0,0.0,9e-08
1783583648164196988,2862,1783583648164196988,base_link,0.0106858112755,0.0131767720533,-0.836535230647,-0.547650430477,1.0,0.0,0.0,0.0,1.0,0.0,0.0,0.0,1.0,0.04627372697,3.73311340809e-05,-0.156774401665,1.21846967915e-07,0.0,0.0,0.0,1.21846967915e-07,0.0,0.0,0.0,1.21846967915e-07,-0.02941995,-0.2549729,9.85568325,9e-08,0.0,0.0,0.0,9e-08,0.0,0.0,0.0,9e-08
1783583648164196988,2862,1783583648164196988,base_link,0.0106858112755,0.0131767720533,-0.836535230647,-0.547650430477,1.0,0.0,0.0,0.0,1.0,0.0,0.0,0.0,1.0,0.04627372697,3.73311340809e-05,-0.156774401665,1.21846967915e-07,0.0,0.0,0.0,1.21846967915e-07,0.0,0.0,0.0,1.21846967915e-07,-0.02941995,-0.2549729,9.85568325,9e-08,0.0,0.0,0.0,9e-08,0.0,0.0,0.0,9e-08
1783583648164196988,2862,1783583648164196988,base_link,0.0106858112755,0.0131767720533,-0.836535230647,-0.547650430477,1.0,0.0,0.0,0.0,1.0,0.0,0.0,0.0,1.0,0.04627372697,3.73311340809e-05,-0.156774401665,1.21846967915e-07,0.0,0.0,0.0,1.21846967915e-07,0.0,0.0,0.0,1.21846967915e-07,-0.02941995,-0.2549729,9.85568325,9e-08,0.0,0.0,0.0,9e-08,0.0,0.0,0.0,9e-08
1783583648164196988,2862,1783583648164196988,base_link,0.0106858112755,0.0131767720533,-0.836535230647,-0.547650430477,1.0,0.0,0.0,0.0,1.0,0.0,0.0,0.0,1.0,0.04627372697,3.73311340809e-05,-0.156774401665,1.21846967915e-07,0.0,0.0,0.0,1.21846967915e-07,0.0,0.0,0.0,1.21846967915e-07,-0.02941995,-0.2549729,9.85568325,9e-08,0.0,0.0,0.0,9e-08,0.0,0.0,0.0,9e-08
1783583648164196988,2862,1783583648164196988,base_link,0.0106858112755,0.0131767720533,-0.836535230647,-0.547650430477,1.0,0.0,0.0,0.0,1.0,0.0,0.0,0.0,1.0,0.04627372697,3.73311340809e-05,-0.156774401665,1.21846967915e-07,0.0,0.0,0.0,1.21846967915e-07,0.0,0.0,0.0,1.21846967915e-07,-0.02941995,-0.2549729,9.85568325,9e-08,0.0,0.0,0.0,9e-08,0.0,0.0,0.0,9e-08
1783583648164196988,2862,1783583648164196988,base_link,0.0106858112755,0.0131767720533,-0.836535230647,-0.547650430477,1.0,0.0,0.0,0.0,1.0,0.0,0.0,0.0,1.0,0.04627372697,3.73311340809e-05,-0.156774401665,1.21846967915e-07,0.0,0.0,0.0,1.21846967915e-07,0.0,0.0,0.0,1.21846967915e-07,-0.02941995,-0.2549729,9.85568325,9e-08,0.0,0.0,0.0,9e-08,0.0,0.0,0.0,9e-08
1783583648164196988,2862,1783583648164196988,base_link,0.0106858112755,0.0131767720533,-0.836535230647,-0.547650430477,1.0,0.0,0.0,0.0,1.0,0.0,0.0,0.0,1.0,0.04627372697,3.73311340809e-05,-0.156774401665,1.21846967915e-07,0.0,0.0,0.0,1.21846967915e-07,0.0,0.0,0.0,1.21846967915e-07,-0.02941995,-0.2549729,9.85568325,9e-08,0.0,0.0,0.0,9e-08,0.0,0.0,0.0,9e-08
1783583648164196988,2862,1783583648164196988,base_link,0.0106858112755,0.0131767720533,-0.836535230647,-0.547650430477,1.0,0.0,0.0,0.0,1.0,0.0,0.0,0.0,1.0,0.04627372697,3.73311340809e-05,-0.156774401665,1.21846967915e-07,0.0,0.0,0.0,1.21846967915e-07,0.0,0.0,0.0,1.21846967915e-07,-0.02941995,-0.2549729,9.85568325,9e-08,0.0,0.0,0.0,9e-08,0.0,0.0,0.0,9e-08
1783583648164196988,2862,1783583648164196988,base_link,0.0106858112755,0.0131767720533,-0.836535230647,-0.547650430477,1.0,0.0,0.0,0.0,1.0,0.0,0.0,0.0,1.0,0.04627372697,3.73311340809e-05,-0.156774401665,1.21846967915e-07,0.0,0.0,0.0,1.21846967915e-07,0.0,0.0,0.0,1.21846967915e-07,-0.02941995,-0.2549729,9.85568325,9e-08,0.0,0.0,0.0,9e-08,0.0,0.0,0.0,9e-08
1783583648164196988,2862,1783583648164196988,base_link,0.0106858112755,0.0131767720533,-0.836535230647,-0.547650430477,1.0,0.0,0.0,0.0,1.0,0.0,0.0,0.0,1.0,0.04627372697,3.73311340809e-05,-0.156774401665,1.21846967915e-07,0.0,0.0,0.0,1.21846967915e-07,0.0,0.0,0.0,1.21846967915e-07,-0.02941995,-0.2549729,9.85568325,9e-08,0.0,0.0,0.0,9e-08,0.0,0.0,0.0,9e-08
1783583648164196988,2862,1783583648164196988,base_link,0.0106858112755,0.0131767720533,-0.836535230647,-0.547650430477,1.0,0.0,0.0,0.0,1.0,0.0,0.0,0.0,1.0,0.04627372697,3.73311340809e-05,-0.156774401665,1.21846967915e-07,0.0,0.0,0.0,1.21846967915e-07,0.0,0.0,0.0,1.21846967915e-07,-0.02941995,-0.2549729,9.85568325,9e-08,0.0,0.0,0.0,9e-08,0.0,0.0,0.0,9e-08
1783583648164196988,2862,1783583648164196988,base_link,0.0106858112755,0.0131767720533,-0.836535230647,-0.547650430477,1.0,0.0,0.0,0.0,1.0,0.0,0.0,0.0,1.0,0.04627372697,3.73311340809e-05,-0.156774401665,1.21846967915e-07,0.0,0.0,0.0,1.21846967915e-07,0.0,0.0,0.0,1.21846967915e-07,-0.02941995,-0.2549729,9.85568325,9e-08,0.0,0.0,0.0,9e-08,0.0,0.0,0.0,9e-08
1783583648164196988,2862,1783583648164196988,base_link,0.0106858112755,0.0131767720533,-0.836535230647,-0.547650430477,1.0,0.0,0.0,0.0,1.0,0.0,0.0,0.0,1.0,0.04627372697,3.73311340809e-05,-0.156774401665,1.21846967915e-07,0.0,0.0,0.0,1.21846967915e-07,0.0,0.0,0.0,1.21846967915e-07,-0.02941995,-0.2549729,9.85568325,9e-08,0.0,0.0,0.0,9e-08,0.0,0.0,0.0,9e-08
1783583648164196988,2862,1783583648164196988,base_link,0.0106858112755,0.0131767720533,-0.836535230647,-0.547650430477,1.0,0.0,0.0,0.0,1.0,0.0,0.0,0.0,1.0,0.04627372697,3.73311340809e-05,-0.156774401665,1.21846967915e-07,0.0,0.0,0.0,1.21846967915e-07,0.0,0.0,0.0,1.21846967915e-07,-0.02941995,-0.2549729,9.85568325,9e-08,0.0,0.0,0.0,9e-08,0.0,0.0,0.0,9e-08
1783583648164196988,2862,1783583648164196988,base_link,0.0106858112755,0.0131767720533,-0.836535230647,-0.547650430477,1.0,0.0,0.0,0.0,1.0,0.0,0.0,0.0,1.0,0.04627372697,3.73311340809e-05,-0.156774401665,1.21846967915e-07,0.0,0.0,0.0,1.21846967915e-07,0.0,0.0,0.0,1.21846967915e-07,-0.02941995,-0.2549729,9.85568325,9e-08,0.0,0.0,0.0,9e-08,0.0,0.0,0.0,9e-08
1783583648164196988,2862,1783583648164196988,base_link,0.0106858112755,0.0131767720533,-0.836535230647,-0.547650430477,1.0,0.0,0.0,0.0,1.0,0.0,0.0,0.0,1.0,0.04627372697,3.73311340809e-05,-0.156774401665,1.21846967915e-07,0.0,0.0,0.0,1.21846967915e-07,0.0,0.0,0.0,1.21846967915e-07,-0.02941995,-0.2549729,9.85568325,9e-08,0.0,0.0,0.0,9e-08,0.0,0.0,0.0,9e-08
1783583648164196988,2862,1783583648164196988,base_link,0.0106858112755,0.0131767720533,-0.836535230647,-0.547650430477,1.0,0.0,0.0,0.0,1.0,0.0,0.0,0.0,1.0,0.04627372697,3.73311340809e-05,-0.156774401665,1.21846967915e-07,0.0,0.0,0.0,1.21846967915e-07,0.0,0.0,0.0,1.21846967915e-07,-0.02941995,-0.2549729,9.85568325,9e-08,0.0,0.0,0.0,9e-08,0.0,0.0,0.0,9e-08
1783583648164196988,2862,1783583648164196988,base_link,0.0106858112755,0.0131767720533,-0.836535230647,-0.547650430477,1.0,0.0,0.0,0.0,1.0,0.0,0.0,0.0,1.0,0.04627372697,3.73311340809e-05,-0.156774401665,1.21846967915e-07,0.0,0.0,0.0,1.21846967915e-07,0.0,0.0,0.0,1.21846967915e-07,-0.02941995,-0.2549729,9.85568325,9e-08,0.0,0.0,0.0,9e-08,0.0,0.0,0.0,9e-08
1783583648164196988,2862,1783583648164196988,base_link,0.0106858112755,0.0131767720533,-0.836535230647,-0.547650430477,1.0,0.0,0.0,0.0,1.0,0.0,0.0,0.0,1.0,0.04627372697,3.73311340809e-05,-0.156774401665,1.21846967915e-07,0.0,0.0,0.0,1.21846967915e-07,0.0,0.0,0.0,1.21846967915e-07,-0.02941995,-0.2549729,9.85568325,9e-08,0.0,0.0,0.0,9e-08,0.0,0.0,0.0,9e-08
1783583648164196988,2862,1783583648164196988,base_link,0.0106858112755,0.0131767720533,-0.836535230647,-0.547650430477,1.0,0.0,0.0,0.0,1.0,0.0,0.0,0.0,1.0,0.04627372697,3.73311340809e-05,-0.156774401665,1.21846967915e-07,0.0,0.0,0.0,1.21846967915e-07,0.0,0.0,0.0,1.21846967915e-07,-0.02941995,-0.2549729,9.85568325,9e-08,0.0,0.0,0.0,9e-08,0.0,0.0,0.0,9e-08
1783583648164196988,2862,1783583648164196988,base_link,0.0106858112755,0.0131767720533,-0.836535230647,-0.547650430477,1.0,0.0,0.0,0.0,1.0,0.0,0.0,0.0,1.0,0.04627372697,3.73311340809e-05,-0.156774401665,1.21846967915e-07,0.0,0.0,0.0,1.21846967915e-07,0.0,0.0,0.0,1.21846967915e-07,-0.02941995,-0.2549729,9.85568325,9e-08,0.0,0.0,0.0,9e-08,0.0,0.0,0.0,9e-08
1783583648164196988,2862,1783583648164196988,base_link,0.0106858112755,0.0131767720533,-0.836535230647,-0.547650430477,1.0,0.0,0.0,0.0,1.0,0.0,0.0,0.0,1.0,0.04627372697,3.73311340809e-05,-0.156774401665,1.21846967915e-07,0.0,0.0,0.0,1.21846967915e-07,0.0,0.0,0.0,1.21846967915e-07,-0.02941995,-0.2549729,9.85568325,9e-08,0.0,0.0,0.0,9e-08,0.0,0.0,0.0,9e-08
1783583648164196988,2862,1783583648164196988,base_link,0.0106858112755,0.0131767720533,-0.836535230647,-0.547650430477,1.0,0.0,0.0,0.0,1.0,0.0,0.0,0.0,1.0,0.04627372697,3.73311340809e-05,-0.156774401665,1.21846967915e-07,0.0,0.0,0.0,1.21846967915e-07,0.0,0.0,0.0,1.21846967915e-07,-0.02941995,-0.2549729,9.85568325,9e-08,0.0,0.0,0.0,9e-08,0.0,0.0,0.0,9e-08
1783583648164196988,2862,1783583648164196988,base_link,0.0106858112755,0.0131767720533,-0.836535230647,-0.547650430477,1.0,0.0,0.0,0.0,1.0,0.0,0.0,0.0,1.0,0.04627372697,3.73311340809e-05,-0.156774401665,1.21846967915e-07,0.0,0.0,0.0,1.21846967915e-07,0.0,0.0,0.0,1.21846967915e-07,-0.02941995,-0.2549729,9.85568325,9e-08,0.0,0.0,0.0,9e-08,0.0,0.0,0.0,9e-08
1783583648423196476,2863,1783583648423196476,base_link,0.0122763000941,0.0165636447776,-0.844078017025,-0.535823888329,1.0,0.0,0.0,0.0,1.0,0.0,0.0,0.0,1.0,-0.0242485255003,-0.000423250719905,0.111055664718,1.21846967915e-07,0.0,0.0,0.0,1.21846967915e-07,0.0,0.0,0.0,1.21846967915e-07,-0.02941995,-0.2549729,9.85568325,9e-08,0.0,0.0,0.0,9e-08,0.0,0.0,0.0,9e-08
1783583648423196476,2863,1783583648423196476,base_link,0.0122763000941,0.0165636447776,-0.844078017025,-0.535823888329,1.0,0.0,0.0,0.0,1.0,0.0,0.0,0.0,1.0,-0.0242485255003,-0.000423250719905,0.111055664718,1.21846967915e-07,0.0,0.0,0.0,1.21846967915e-07,0.0,0.0,0.0,1.21846967915e-07,-0.02941995,-0.2549729,9.85568325,9e-08,0.0,0.0,0.0,9e-08,0.0,0.0,0.0,9e-08
1783583648423196476,2863,1783583648423196476,base_link,0.0122763000941,0.0165636447776,-0.844078017025,-0.535823888329,1.0,0.0,0.0,0.0,1.0,0.0,0.0,0.0,1.0,-0.0242485255003,-0.000423250719905,0.111055664718,1.21846967915e-07,0.0,0.0,0.0,1.21846967915e-07,0.0,0.0,0.0,1.21846967915e-07,-0.02941995,-0.2549729,9.85568325,9e-08,0.0,0.0,0.0,9e-08,0.0,0.0,0.0,9e-08
1783583648423196476,2863,1783583648423196476,base_link,0.0122763000941,0.0165636447776,-0.844078017025,-0.535823888329,1.0,0.0,0.0,0.0,1.0,0.0,0.0,0.0,1.0,-0.0242485255003,-0.000423250719905,0.111055664718,1.21846967915e-07,0.0,0.0,0.0,1.21846967915e-07,0.0,0.0,0.0,1.21846967915e-07,-0.02941995,-0.2549729,9.85568325,9e-08,0.0,0.0,0.0,9e-08,0.0,0.0,0.0,9e-08
1783583648423196476,2863,1783583648423196476,base_link,0.0122763000941,0.0165636447776,-0.844078017025,-0.535823888329,1.0,0.0,0.0,0.0,1.0,0.0,0.0,0.0,1.0,-0.0242485255003,-0.000423250719905,0.111055664718,1.21846967915e-07,0.0,0.0,0.0,1.21846967915e-07,0.0,0.0,0.0,1.21846967915e-07,-0.02941995,-0.2549729,9.85568325,9e-08,0.0,0.0,0.0,9e-08,0.0,0.0,0.0,9e-08
1783583648423196476,2863,1783583648423196476,base_link,0.0122763000941,0.0165636447776,-0.844078017025,-0.535823888329,1.0,0.0,0.0,0.0,1.0,0.0,0.0,0.0,1.0,-0.0242485255003,-0.000423250719905,0.111055664718,1.21846967915e-07,0.0,0.0,0.0,1.21846967915e-07,0.0,0.0,0.0,1.21846967915e-07,-0.02941995,-0.2549729,9.85568325,9e-08,0.0,0.0,0.0,9e-08,0.0,0.0,0.0,9e-08
1783583648423196476,2863,1783583648423196476,base_link,0.0122763000941,0.0165636447776,-0.844078017025,-0.535823888329,1.0,0.0,0.0,0.0,1.0,0.0,0.0,0.0,1.0,-0.0242485255003,-0.000423250719905,0.111055664718,1.21846967915e-07,0.0,0.0,0.0,1.21846967915e-07,0.0,0.0,0.0,1.21846967915e-07,-0.02941995,-0.2549729,9.85568325,9e-08,0.0,0.0,0.0,9e-08,0.0,0.0,0.0,9e-08
1783583648423196476,2863,1783583648423196476,base_link,0.0122763000941,0.0165636447776,-0.844078017025,-0.535823888329,1.0,0.0,0.0,0.0,1.0,0.0,0.0,0.0,1.0,-0.0242485255003,-0.000423250719905,0.111055664718,1.21846967915e-07,0.0,0.0,0.0,1.21846967915e-07,0.0,0.0,0.0,1.21846967915e-07,-0.02941995,-0.2549729,9.85568325,9e-08,0.0,0.0,0.0,9e-08,0.0,0.0,0.0,9e-08
1783583648423196476,2863,1783583648423196476,base_link,0.0122763000941,0.0165636447776,-0.844078017025,-0.535823888329,1.0,0.0,0.0,0.0,1.0,0.0,0.0,0.0,1.0,-0.0242485255003,-0.000423250719905,0.111055664718,1.21846967915e-07,0.0,0.0,0.0,1.21846967915e-07,0.0,0.0,0.0,1.21846967915e-07,-0.02941995,-0.2549729,9.85568325,9e-08,0.0,0.0,0.0,9e-08,0.0,0.0,0.0,9e-08
1783583648423196476,2863,1783583648423196476,base_link,0.0122763000941,0.0165636447776,-0.844078017025,-0.535823888329,1.0,0.0,0.0,0.0,1.0,0.0,0.0,0.0,1.0,-0.0242485255003,-0.000423250719905,0.111055664718,1.21846967915e-07,0.0,0.0,0.0,1.21846967915e-07,0.0,0.0,0.0,1.21846967915e-07,-0.02941995,-0.2549729,9.85568325,9e-08,0.0,0.0,0.0,9e-08,0.0,0.0,0.0,9e-08
1783583648423196476,2863,1783583648423196476,base_link,0.0122763000941,0.0165636447776,-0.844078017025,-0.535823888329,1.0,0.0,0.0,0.0,1.0,0.0,0.0,0.0,1.0,-0.0242485255003,-0.000423250719905,0.111055664718,1.21846967915e-07,0.0,0.0,0.0,1.21846967915e-07,0.0,0.0,0.0,1.21846967915e-07,-0.02941995,-0.2549729,9.85568325,9e-08,0.0,0.0,0.0,9e-08,0.0,0.0,0.0,9e-08
1783583648423196476,2863,1783583648423196476,base_link,0.0122763000941,0.0165636447776,-0.844078017025,-0.535823888329,1.0,0.0,0.0,0.0,1.0,0.0,0.0,0.0,1.0,-0.0242485255003,-0.000423250719905,0.111055664718,1.21846967915e-07,0.0,0.0,0.0,1.21846967915e-07,0.0,0.0,0.0,1.21846967915e-07,-0.02941995,-0.2549729,9.85568325,9e-08,0.0,0.0,0.0,9e-08,0.0,0.0,0.0,9e-08
1783583648423196476,2863,1783583648423196476,base_link,0.0122763000941,0.0165636447776,-0.844078017025,-0.535823888329,1.0,0.0,0.0,0.0,1.0,0.0,0.0,0.0,1.0,-0.0242485255003,-0.000423250719905,0.111055664718,1.21846967915e-07,0.0,0.0,0.0,1.21846967915e-07,0.0,0.0,0.0,1.21846967915e-07,-0.02941995,-0.2549729,9.85568325,9e-08,0.0,0.0,0.0,9e-08,0.0,0.0,0.0,9e-08
1783583648423196476,2863,1783583648423196476,base_link,0.0122763000941,0.0165636447776,-0.844078017025,-0.535823888329,1.0,0.0,0.0,0.0,1.0,0.0,0.0,0.0,1.0,-0.0242485255003,-0.000423250719905,0.111055664718,1.21846967915e-07,0.0,0.0,0.0,1.21846967915e-07,0.0,0.0,0.0,1.21846967915e-07,-0.02941995,-0.2549729,9.85568325,9e-08,0.0,0.0,0.0,9e-08,0.0,0.0,0.0,9e-08
1783583648423196476,2863,1783583648423196476,base_link,0.0122763000941,0.0165636447776,-0.844078017025,-0.535823888329,1.0,0.0,0.0,0.0,1.0,0.0,0.0,0.0,1.0,-0.0242485255003,-0.000423250719905,0.111055664718,1.21846967915e-07,0.0,0.0,0.0,1.21846967915e-07,0.0,0.0,0.0,1.21846967915e-07,-0.02941995,-0.2549729,9.85568325,9e-08,0.0,0.0,0.0,9e-08,0.0,0.0,0.0,9e-08
1783583648423196476,2863,1783583648423196476,base_link,0.0122763000941,0.0165636447776,-0.844078017025,-0.535823888329,1.0,0.0,0.0,0.0,1.0,0.0,0.0,0.0,1.0,-0.0242485255003,-0.000423250719905,0.111055664718,1.21846967915e-07,0.0,0.0,0.0,1.21846967915e-07,0.0,0.0,0.0,1.21846967915e-07,-0.02941995,-0.2549729,9.85568325,9e-08,0.0,0.0,0.0,9e-08,0.0,0.0,0.0,9e-08
1783583648423196476,2863,1783583648423196476,base_link,0.0122763000941,0.0165636447776,-0.844078017025,-0.535823888329,1.0,0.0,0.0,0.0,1.0,0.0,0.0,0.0,1.0,-0.0242485255003,-0.000423250719905,0.111055664718,1.21846967915e-07,0.0,0.0,0.0,1.21846967915e-07,0.0,0.0,0.0,1.21846967915e-07,-0.02941995,-0.2549729,9.85568325,9e-08,0.0,0.0,0.0,9e-08,0.0,0.0,0.0,9e-08
1783583648423196476,2863,1783583648423196476,base_link,0.0122763000941,0.0165636447776,-0.844078017025,-0.535823888329,1.0,0.0,0.0,0.0,1.0,0.0,0.0,0.0,1.0,-0.0242485255003,-0.000423250719905,0.111055664718,1.21846967915e-07,0.0,0.0,0.0,1.21846967915e-07,0.0,0.0,0.0,1.21846967915e-07,-0.02941995,-0.2549729,9.85568325,9e-08,0.0,0.0,0.0,9e-08,0.0,0.0,0.0,9e-08
1783583648423196476,2863,1783583648423196476,base_link,0.0122763000941,0.0165636447776,-0.844078017025,-0.535823888329,1.0,0.0,0.0,0.0,1.0,0.0,0.0,0.0,1.0,-0.0242485255003,-0.000423250719905,0.111055664718,1.21846967915e-07,0.0,0.0,0.0,1.21846967915e-07,0.0,0.0,0.0,1.21846967915e-07,-0.02941995,-0.2549729,9.85568325,9e-08,0.0,0.0,0.0,9e-08,0.0,0.0,0.0,9e-08
1783583648423196476,2863,1783583648423196476,base_link,0.0122763000941,0.0165636447776,-0.844078017025,-0.535823888329,1.0,0.0,0.0,0.0,1.0,0.0,0.0,0.0,1.0,-0.0242485255003,-0.000423250719905,0.111055664718,1.21846967915e-07,0.0,0.0,0.0,1.21846967915e-07,0.0,0.0,0.0,1.21846967915e-07,-0.02941995,-0.2549729,9.85568325,9e-08,0.0,0.0,0.0,9e-08,0.0,0.0,0.0,9e-08
1783583648423196476,2863,1783583648423196476,base_link,0.0122763000941,0.0165636447776,-0.844078017025,-0.535823888329,1.0,0.0,0.0,0.0,1.0,0.0,0.0,0.0,1.0,-0.0242485255003,-0.000423250719905,0.111055664718,1.21846967915e-07,0.0,0.0,0.0,1.21846967915e-07,0.0,0.0,0.0,1.21846967915e-07,-0.02941995,-0.2549729,9.85568325,9e-08,0.0,0.0,0.0,9e-08,0.0,0.0,0.0,9e-08
1783583648423196476,2863,1783583648423196476,base_link,0.0122763000941,0.0165636447776,-0.844078017025,-0.535823888329,1.0,0.0,0.0,0.0,1.0,0.0,0.0,0.0,1.0,-0.0242485255003,-0.000423250719905,0.111055664718,1.21846967915e-07,0.0,0.0,0.0,1.21846967915e-07,0.0,0.0,0.0,1.21846967915e-07,-0.02941995,-0.2549729,9.85568325,9e-08,0.0,0.0,0.0,9e-08,0.0,0.0,0.0,9e-08
1783583648423196476,2863,1783583648423196476,base_link,0.0122763000941,0.0165636447776,-0.844078017025,-0.535823888329,1.0,0.0,0.0,0.0,1.0,0.0,0.0,0.0,1.0,-0.0242485255003,-0.000423250719905,0.111055664718,1.21846967915e-07,0.0,0.0,0.0,1.21846967915e-07,0.0,0.0,0.0,1.21846967915e-07,-0.02941995,-0.2549729,9.85568325,9e-08,0.0,0.0,0.0,9e-08,0.0,0.0,0.0,9e-08
1783583648423196476,2863,1783583648423196476,base_link,0.0122763000941,0.0165636447776,-0.844078017025,-0.535823888329,1.0,0.0,0.0,0.0,1.0,0.0,0.0,0.0,1.0,-0.0242485255003,-0.000423250719905,0.111055664718,1.21846967915e-07,0.0,0.0,0.0,1.21846967915e-07,0.0,0.0,0.0,1.21846967915e-07,-0.02941995,-0.2549729,9.85568325,9e-08,0.0,0.0,0.0,9e-08,0.0,0.0,0.0,9e-08
1783583648663092510,2864,1783583648663092510,base_link,0.010961125701,0.0143816989104,-0.840135816868,-0.542074560993,1.0,0.0,0.0,0.0,1.0,0.0,0.0,0.0,1.0,-0.00469279196113,-0.000595177523792,0.0222612693906,1.21846967915e-07,0.0,0.0,0.0,1.21846967915e-07,0.0,0.0,0.0,1.21846967915e-07,-0.0196133,0.24516625,9.9243298,9e-08,0.0,0.0,0.0,9e-08,0.0,0.0,0.0,9e-08
1783583648663092510,2864,1783583648663092510,base_link,0.010961125701,0.0143816989104,-0.840135816868,-0.542074560993,1.0,0.0,0.0,0.0,1.0,0.0,0.0,0.0,1.0,-0.00469279196113,-0.000595177523792,0.0222612693906,1.21846967915e-07,0.0,0.0,0.0,1.21846967915e-07,0.0,0.0,0.0,1.21846967915e-07,-0.0196133,0.24516625,9.9243298,9e-08,0.0,0.0,0.0,9e-08,0.0,0.0,0.0,9e-08
1783583648663092510,2864,1783583648663092510,base_link,0.010961125701,0.0143816989104,-0.840135816868,-0.542074560993,1.0,0.0,0.0,0.0,1.0,0.0,0.0,0.0,1.0,-0.00469279196113,-0.000595177523792,0.0222612693906,1.21846967915e-07,0.0,0.0,0.0,1.21846967915e-07,0.0,0.0,0.0,1.21846967915e-07,-0.0196133,0.24516625,9.9243298,9e-08,0.0,0.0,0.0,9e-08,0.0,0.0,0.0,9e-08
1783583648663092510,2864,1783583648663092510,base_link,0.010961125701,0.0143816989104,-0.840135816868,-0.542074560993,1.0,0.0,0.0,0.0,1.0,0.0,0.0,0.0,1.0,-0.00469279196113,-0.000595177523792,0.0222612693906,1.21846967915e-07,0.0,0.0,0.0,1.21846967915e-07,0.0,0.0,0.0,1.21846967915e-07,-0.0196133,0.24516625,9.9243298,9e-08,0.0,0.0,0.0,9e-08,0.0,0.0,0.0,9e-08
1783583648663092510,2864,1783583648663092510,base_link,0.010961125701,0.0143816989104,-0.840135816868,-0.542074560993,1.0,0.0,0.0,0.0,1.0,0.0,0.0,0.0,1.0,-0.00469279196113,-0.000595177523792,0.0222612693906,1.21846967915e-07,0.0,0.0,0.0,1.21846967915e-07,0.0,0.0,0.0,1.21846967915e-07,-0.0196133,0.24516625,9.9243298,9e-08,0.0,0.0,0.0,9e-08,0.0,0.0,0.0,9e-08
1783583648663092510,2864,1783583648663092510,base_link,0.010961125701,0.0143816989104,-0.840135816868,-0.542074560993,1.0,0.0,0.0,0.0,1.0,0.0,0.0,0.0,1.0,-0.00469279196113,-0.000595177523792,0.0222612693906,1.21846967915e-07,0.0,0.0,0.0,1.21846967915e-07,0.0,0.0,0.0,1.21846967915e-07,-0.0196133,0.24516625,9.9243298,9e-08,0.0,0.0,0.0,9e-08,0.0,0.0,0.0,9e-08
1783583648663092510,2864,1783583648663092510,base_link,0.010961125701,0.0143816989104,-0.840135816868,-0.542074560993,1.0,0.0,0.0,0.0,1.0,0.0,0.0,0.0,1.0,-0.00469279196113,-0.000595177523792,0.0222612693906,1.21846967915e-07,0.0,0.0,0.0,1.21846967915e-07,0.0,0.0,0.0,1.21846967915e-07,-0.0196133,0.24516625,9.9243298,9e-08,0.0,0.0,0.0,9e-08,0.0,0.0,0.0,9e-08
1783583648663092510,2864,1783583648663092510,base_link,0.010961125701,0.0143816989104,-0.840135816868,-0.542074560993,1.0,0.0,0.0,0.0,1.0,0.0,0.0,0.0,1.0,-0.00469279196113,-0.000595177523792,0.0222612693906,1.21846967915e-07,0.0,0.0,0.0,1.21846967915e-07,0.0,0.0,0.0,1.21846967915e-07,-0.0196133,0.24516625,9.9243298,9e-08,0.0,0.0,0.0,9e-08,0.0,0.0,0.0,9e-08
1783583648663092510,2864,1783583648663092510,base_link,0.010961125701,0.0143816989104,-0.840135816868,-0.542074560993,1.0,0.0,0.0,0.0,1.0,0.0,0.0,0.0,1.0,-0.00469279196113,-0.000595177523792,0.0222612693906,1.21846967915e-07,0.0,0.0,0.0,1.21846967915e-07,0.0,0.0,0.0,1.21846967915e-07,-0.0196133,0.24516625,9.9243298,9e-08,0.0,0.0,0.0,9e-08,0.0,0.0,0.0,9e-08
1783583648663092510,2864,1783583648663092510,base_link,0.010961125701,0.0143816989104,-0.840135816868,-0.542074560993,1.0,0.0,0.0,0.0,1.0,0.0,0.0,0.0,1.0,-0.00469279196113,-0.000595177523792,0.0222612693906,1.21846967915e-07,0.0,0.0,0.0,1.21846967915e-07,0.0,0.0,0.0,1.21846967915e-07,-0.0196133,0.24516625,9.9243298,9e-08,0.0,0.0,0.0,9e-08,0.0,0.0,0.0,9e-08
1783583648663092510,2864,1783583648663092510,base_link,0.010961125701,0.0143816989104,-0.840135816868,-0.542074560993,1.0,0.0,0.0,0.0,1.0,0.0,0.0,0.0,1.0,-0.00469279196113,-0.000595177523792,0.0222612693906,1.21846967915e-07,0.0,0.0,0.0,1.21846967915e-07,0.0,0.0,0.0,1.21846967915e-07,-0.0196133,0.24516625,9.9243298,9e-08,0.0,0.0,0.0,9e-08,0.0,0.0,0.0,9e-08
1783583648663092510,2864,1783583648663092510,base_link,0.010961125701,0.0143816989104,-0.840135816868,-0.542074560993,1.0,0.0,0.0,0.0,1.0,0.0,0.0,0.0,1.0,-0.00469279196113,-0.000595177523792,0.0222612693906,1.21846967915e-07,0.0,0.0,0.0,1.21846967915e-07,0.0,0.0,0.0,1.21846967915e-07,-0.0196133,0.24516625,9.9243298,9e-08,0.0,0.0,0.0,9e-08,0.0,0.0,0.0,9e-08
1783583648663092510,2864,1783583648663092510,base_link,0.010961125701,0.0143816989104,-0.840135816868,-0.542074560993,1.0,0.0,0.0,0.0,1.0,0.0,0.0,0.0,1.0,-0.00469279196113,-0.000595177523792,0.0222612693906,1.21846967915e-07,0.0,0.0,0.0,1.21846967915e-07,0.0,0.0,0.0,1.21846967915e-07,-0.0196133,0.24516625,9.9243298,9e-08,0.0,0.0,0.0,9e-08,0.0,0.0,0.0,9e-08
1783583648663092510,2864,1783583648663092510,base_link,0.010961125701,0.0143816989104,-0.840135816868,-0.542074560993,1.0,0.0,0.0,0.0,1.0,0.0,0.0,0.0,1.0,-0.00469279196113,-0.000595177523792,0.0222612693906,1.21846967915e-07,0.0,0.0,0.0,1.21846967915e-07,0.0,0.0,0.0,1.21846967915e-07,-0.0196133,0.24516625,9.9243298,9e-08,0.0,0.0,0.0,9e-08,0.0,0.0,0.0,9e-08
1783583648663092510,2864,1783583648663092510,base_link,0.010961125701,0.0143816989104,-0.840135816868,-0.542074560993,1.0,0.0,0.0,0.0,1.0,0.0,0.0,0.0,1.0,-0.00469279196113,-0.000595177523792,0.0222612693906,1.21846967915e-07,0.0,0.0,0.0,1.21846967915e-07,0.0,0.0,0.0,1.21846967915e-07,-0.0196133,0.24516625,9.9243298,9e-08,0.0,0.0,0.0,9e-08,0.0,0.0,0.0,9e-08
1783583648663092510,2864,1783583648663092510,base_link,0.010961125701,0.0143816989104,-0.840135816868,-0.542074560993,1.0,0.0,0.0,0.0,1.0,0.0,0.0,0.0,1.0,-0.00469279196113,-0.000595177523792,0.0222612693906,1.21846967915e-07,0.0,0.0,0.0,1.21846967915e-07,0.0,0.0,0.0,1.21846967915e-07,-0.0196133,0.24516625,9.9243298,9e-08,0.0,0.0,0.0,9e-08,0.0,0.0,0.0,9e-08
1783583648663092510,2864,1783583648663092510,base_link,0.010961125701,0.0143816989104,-0.840135816868,-0.542074560993,1.0,0.0,0.0,0.0,1.0,0.0,0.0,0.0,1.0,-0.00469279196113,-0.000595177523792,0.0222612693906,1.21846967915e-07,0.0,0.0,0.0,1.21846967915e-07,0.0,0.0,0.0,1.21846967915e-07,-0.0196133,0.24516625,9.9243298,9e-08,0.0,0.0,0.0,9e-08,0.0,0.0,0.0,9e-08
1783583648663092510,2864,1783583648663092510,base_link,0.010961125701,0.0143816989104,-0.840135816868,-0.542074560993,1.0,0.0,0.0,0.0,1.0,0.0,0.0,0.0,1.0,-0.00469279196113,-0.000595177523792,0.0222612693906,1.21846967915e-07,0.0,0.0,0.0,1.21846967915e-07,0.0,0.0,0.0,1.21846967915e-07,-0.0196133,0.24516625,9.9243298,9e-08,0.0,0.0,0.0,9e-08,0.0,0.0,0.0,9e-08
1783583648663092510,2864,1783583648663092510,base_link,0.010961125701,0.0143816989104,-0.840135816868,-0.542074560993,1.0,0.0,0.0,0.0,1.0,0.0,0.0,0.0,1.0,-0.00469279196113,-0.000595177523792,0.0222612693906,1.21846967915e-07,0.0,0.0,0.0,1.21846967915e-07,0.0,0.0,0.0,1.21846967915e-07,-0.0196133,0.24516625,9.9243298,9e-08,0.0,0.0,0.0,9e-08,0.0,0.0,0.0,9e-08
1783583648663092510,2864,1783583648663092510,base_link,0.010961125701,0.0143816989104,-0.840135816868,-0.542074560993,1.0,0.0,0.0,0.0,1.0,0.0,0.0,0.0,1.0,-0.00469279196113,-0.000595177523792,0.0222612693906,1.21846967915e-07,0.0,0.0,0.0,1.21846967915e-07,0.0,0.0,0.0,1.21846967915e-07,-0.0196133,0.24516625,9.9243298,9e-08,0.0,0.0,0.0,9e-08,0.0,0.0,0.0,9e-08
1783583648663092510,2864,1783583648663092510,base_link,0.010961125701,0.0143816989104,-0.840135816868,-0.542074560993,1.0,0.0,0.0,0.0,1.0,0.0,0.0,0.0,1.0,-0.00469279196113,-0.000595177523792,0.0222612693906,1.21846967915e-07,0.0,0.0,0.0,1.21846967915e-07,0.0,0.0,0.0,1.21846967915e-07,-0.0196133,0.24516625,9.9243298,9e-08,0.0,0.0,0.0,9e-08,0.0,0.0,0.0,9e-08
1783583648663092510,2864,1783583648663092510,base_link,0.010961125701,0.0143816989104,-0.840135816868,-0.542074560993,1.0,0.0,0.0,0.0,1.0,0.0,0.0,0.0,1.0,-0.00469279196113,-0.000595177523792,0.0222612693906,1.21846967915e-07,0.0,0.0,0.0,1.21846967915e-07,0.0,0.0,0.0,1.21846967915e-07,-0.0196133,0.24516625,9.9243298,9e-08,0.0,0.0,0.0,9e-08,0.0,0.0,0.0,9e-08
1783583648663092510,2864,1783583648663092510,base_link,0.010961125701,0.0143816989104,-0.840135816868,-0.542074560993,1.0,0.0,0.0,0.0,1.0,0.0,0.0,0.0,1.0,-0.00469279196113,-0.000595177523792,0.0222612693906,1.21846967915e-07,0.0,0.0,0.0,1.21846967915e-07,0.0,0.0,0.0,1.21846967915e-07,-0.0196133,0.24516625,9.9243298,9e-08,0.0,0.0,0.0,9e-08,0.0,0.0,0.0,9e-08
1783583648663092510,2864,1783583648663092510,base_link,0.010961125701,0.0143816989104,-0.840135816868,-0.542074560993,1.0,0.0,0.0,0.0,1.0,0.0,0.0,0.0,1.0,-0.00469279196113,-0.000595177523792,0.0222612693906,1.21846967915e-07,0.0,0.0,0.0,1.21846967915e-07,0.0,0.0,0.0,1.21846967915e-07,-0.0196133,0.24516625,9.9243298,9e-08,0.0,0.0,0.0,9e-08,0.0,0.0,0.0,9e-08
1783583648663092510,2864,1783583648663092510,base_link,0.010961125701,0.0143816989104,-0.840135816868,-0.542074560993,1.0,0.0,0.0,0.0,1.0,0.0,0.0,0.0,1.0,-0.00469279196113,-0.000595177523792,0.0222612693906,1.21846967915e-07,0.0,0.0,0.0,1.21846967915e-07,0.0,0.0,0.0,1.21846967915e-07,-0.0196133,0.24516625,9.9243298,9e-08,0.0,0.0,0.0,9e-08,0.0,0.0,0.0,9e-08
1783583648663092510,2864,1783583648663092510,base_link,0.010961125701,0.0143816989104,-0.840135816868,-0.542074560993,1.0,0.0,0.0,0.0,1.0,0.0,0.0,0.0,1.0,-0.00469279196113,-0.000595177523792,0.0222612693906,1.21846967915e-07,0.0,0.0,0.0,1.21846967915e-07,0.0,0.0,0.0,1.21846967915e-07,-0.0196133,0.24516625,9.9243298,9e-08,0.0,0.0,0.0,9e-08,0.0,0.0,0.0,9e-08
1783583648923092510,2865,1783583648923092510,base_link,0.0111294040617,0.0140848440676,-0.84083464664,-0.540994316553,1.0,0.0,0.0,0.0,1.0,0.0,0.0,0.0,1.0,0.0480182021856,0.0043192114681,-0.185771331191,1.21846967915e-07,0.0,0.0,0.0,1.21846967915e-07,0.0,0.0,0.0,1.21846967915e-07,-0.0196133,0.24516625,9.9243298,9e-08,0.0,0.0,0.0,9e-08,0.0,0.0,0.0,9e-08
1783583648923092510,2865,1783583648923092510,base_link,0.0111294040617,0.0140848440676,-0.84083464664,-0.540994316553,1.0,0.0,0.0,0.0,1.0,0.0,0.0,0.0,1.0,0.0480182021856,0.0043192114681,-0.185771331191,1.21846967915e-07,0.0,0.0,0.0,1.21846967915e-07,0.0,0.0,0.0,1.21846967915e-07,-0.0196133,0.24516625,9.9243298,9e-08,0.0,0.0,0.0,9e-08,0.0,0.0,0.0,9e-08
1783583648923092510,2865,1783583648923092510,base_link,0.0111294040617,0.0140848440676,-0.84083464664,-0.540994316553,1.0,0.0,0.0,0.0,1.0,0.0,0.0,0.0,1.0,0.0480182021856,0.0043192114681,-0.185771331191,1.21846967915e-07,0.0,0.0,0.0,1.21846967915e-07,0.0,0.0,0.0,1.21846967915e-07,-0.0196133,0.24516625,9.9243298,9e-08,0.0,0.0,0.0,9e-08,0.0,0.0,0.0,9e-08
1783583648923092510,2865,1783583648923092510,base_link,0.0111294040617,0.0140848440676,-0.84083464664,-0.540994316553,1.0,0.0,0.0,0.0,1.0,0.0,0.0,0.0,1.0,0.0480182021856,0.0043192114681,-0.185771331191,1.21846967915e-07,0.0,0.0,0.0,1.21846967915e-07,0.0,0.0,0.0,1.21846967915e-07,-0.0196133,0.24516625,9.9243298,9e-08,0.0,0.0,0.0,9e-08,0.0,0.0,0.0,9e-08
1783583648923092510,2865,1783583648923092510,base_link,0.0111294040617,0.0140848440676,-0.84083464664,-0.540994316553,1.0,0.0,0.0,0.0,1.0,0.0,0.0,0.0,1.0,0.0480182021856,0.0043192114681,-0.185771331191,1.21846967915e-07,0.0,0.0,0.0,1.21846967915e-07,0.0,0.0,0.0,1.21846967915e-07,-0.0196133,0.24516625,9.9243298,9e-08,0.0,0.0,0.0,9e-08,0.0,0.0,0.0,9e-08
1783583648923092510,2865,1783583648923092510,base_link,0.0111294040617,0.0140848440676,-0.84083464664,-0.540994316553,1.0,0.0,0.0,0.0,1.0,0.0,0.0,0.0,1.0,0.0480182021856,0.0043192114681,-0.185771331191,1.21846967915e-07,0.0,0.0,0.0,1.21846967915e-07,0.0,0.0,0.0,1.21846967915e-07,-0.0196133,0.24516625,9.9243298,9e-08,0.0,0.0,0.0,9e-08,0.0,0.0,0.0,9e-08
1783583648923092510,2865,1783583648923092510,base_link,0.0111294040617,0.0140848440676,-0.84083464664,-0.540994316553,1.0,0.0,0.0,0.0,1.0,0.0,0.0,0.0,1.0,0.0480182021856,0.0043192114681,-0.185771331191,1.21846967915e-07,0.0,0.0,0.0,1.21846967915e-07,0.0,0.0,0.0,1.21846967915e-07,-0.0196133,0.24516625,9.9243298,9e-08,0.0,0.0,0.0,9e-08,0.0,0.0,0.0,9e-08
1783583648923092510,2865,1783583648923092510,base_link,0.0111294040617,0.0140848440676,-0.84083464664,-0.540994316553,1.0,0.0,0.0,0.0,1.0,0.0,0.0,0.0,1.0,0.0480182021856,0.0043192114681,-0.185771331191,1.21846967915e-07,0.0,0.0,0.0,1.21846967915e-07,0.0,0.0,0.0,1.21846967915e-07,-0.0196133,0.24516625,9.9243298,9e-08,0.0,0.0,0.0,9e-08,0.0,0.0,0.0,9e-08
1783583648923092510,2865,1783583648923092510,base_link,0.0111294040617,0.0140848440676,-0.84083464664,-0.540994316553,1.0,0.0,0.0,0.0,1.0,0.0,0.0,0.0,1.0,0.0480182021856,0.0043192114681,-0.185771331191,1.21846967915e-07,0.0,0.0,0.0,1.21846967915e-07,0.0,0.0,0.0,1.21846967915e-07,-0.0196133,0.24516625,9.9243298,9e-08,0.0,0.0,0.0,9e-08,0.0,0.0,0.0,9e-08
1783583648923092510,2865,1783583648923092510,base_link,0.0111294040617,0.0140848440676,-0.84083464664,-0.540994316553,1.0,0.0,0.0,0.0,1.0,0.0,0.0,0.0,1.0,0.0480182021856,0.0043192114681,-0.185771331191,1.21846967915e-07,0.0,0.0,0.0,1.21846967915e-07,0.0,0.0,0.0,1.21846967915e-07,-0.0196133,0.24516625,9.9243298,9e-08,0.0,0.0,0.0,9e-08,0.0,0.0,0.0,9e-08
1783583648923092510,2865,1783583648923092510,base_link,0.0111294040617,0.0140848440676,-0.84083464664,-0.540994316553,1.0,0.0,0.0,0.0,1.0,0.0,0.0,0.0,1.0,0.0480182021856,0.0043192114681,-0.185771331191,1.21846967915e-07,0.0,0.0,0.0,1.21846967915e-07,0.0,0.0,0.0,1.21846967915e-07,-0.0196133,0.24516625,9.9243298,9e-08,0.0,0.0,0.0,9e-08,0.0,0.0,0.0,9e-08
1783583648923092510,2865,1783583648923092510,base_link,0.0111294040617,0.0140848440676,-0.84083464664,-0.540994316553,1.0,0.0,0.0,0.0,1.0,0.0,0.0,0.0,1.0,0.0480182021856,0.0043192114681,-0.185771331191,1.21846967915e-07,0.0,0.0,0.0,1.21846967915e-07,0.0,0.0,0.0,1.21846967915e-07,-0.0196133,0.24516625,9.9243298,9e-08,0.0,0.0,0.0,9e-08,0.0,0.0,0.0,9e-08
1783583648923092510,2865,1783583648923092510,base_link,0.0111294040617,0.0140848440676,-0.84083464664,-0.540994316553,1.0,0.0,0.0,0.0,1.0,0.0,0.0,0.0,1.0,0.0480182021856,0.0043192114681,-0.185771331191,1.21846967915e-07,0.0,0.0,0.0,1.21846967915e-07,0.0,0.0,0.0,1.21846967915e-07,-0.0196133,0.24516625,9.9243298,9e-08,0.0,0.0,0.0,9e-08,0.0,0.0,0.0,9e-08
1783583648923092510,2865,1783583648923092510,base_link,0.0111294040617,0.0140848440676,-0.84083464664,-0.540994316553,1.0,0.0,0.0,0.0,1.0,0.0,0.0,0.0,1.0,0.0480182021856,0.0043192114681,-0.185771331191,1.21846967915e-07,0.0,0.0,0.0,1.21846967915e-07,0.0,0.0,0.0,1.21846967915e-07,-0.0196133,0.24516625,9.9243298,9e-08,0.0,0.0,0.0,9e-08,0.0,0.0,0.0,9e-08
1783583648923092510,2865,1783583648923092510,base_link,0.0111294040617,0.0140848440676,-0.84083464664,-0.540994316553,1.0,0.0,0.0,0.0,1.0,0.0,0.0,0.0,1.0,0.0480182021856,0.0043192114681,-0.185771331191,1.21846967915e-07,0.0,0.0,0.0,1.21846967915e-07,0.0,0.0,0.0,1.21846967915e-07,-0.0196133,0.24516625,9.9243298,9e-08,0.0,0.0,0.0,9e-08,0.0,0.0,0.0,9e-08
1783583648923092510,2865,1783583648923092510,base_link,0.0111294040617,0.0140848440676,-0.84083464664,-0.540994316553,1.0,0.0,0.0,0.0,1.0,0.0,0.0,0.0,1.0,0.0480182021856,0.0043192114681,-0.185771331191,1.21846967915e-07,0.0,0.0,0.0,1.21846967915e-07,0.0,0.0,0.0,1.21846967915e-07,-0.0196133,0.24516625,9.9243298,9e-08,0.0,0.0,0.0,9e-08,0.0,0.0,0.0,9e-08
1783583648923092510,2865,1783583648923092510,base_link,0.0111294040617,0.0140848440676,-0.84083464664,-0.540994316553,1.0,0.0,0.0,0.0,1.0,0.0,0.0,0.0,1.0,0.0480182021856,0.0043192114681,-0.185771331191,1.21846967915e-07,0.0,0.0,0.0,1.21846967915e-07,0.0,0.0,0.0,1.21846967915e-07,-0.0196133,0.24516625,9.9243298,9e-08,0.0,0.0,0.0,9e-08,0.0,0.0,0.0,9e-08
1783583648923092510,2865,1783583648923092510,base_link,0.0111294040617,0.0140848440676,-0.84083464664,-0.540994316553,1.0,0.0,0.0,0.0,1.0,0.0,0.0,0.0,1.0,0.0480182021856,0.0043192114681,-0.185771331191,1.21846967915e-07,0.0,0.0,0.0,1.21846967915e-07,0.0,0.0,0.0,1.21846967915e-07,-0.0196133,0.24516625,9.9243298,9e-08,0.0,0.0,0.0,9e-08,0.0,0.0,0.0,9e-08
1783583648923092510,2865,1783583648923092510,base_link,0.0111294040617,0.0140848440676,-0.84083464664,-0.540994316553,1.0,0.0,0.0,0.0,1.0,0.0,0.0,0.0,1.0,0.0480182021856,0.0043192114681,-0.185771331191,1.21846967915e-07,0.0,0.0,0.0,1.21846967915e-07,0.0,0.0,0.0,1.21846967915e-07,-0.0196133,0.24516625,9.9243298,9e-08,0.0,0.0,0.0,9e-08,0.0,0.0,0.0,9e-08
1783583648923092510,2865,1783583648923092510,base_link,0.0111294040617,0.0140848440676,-0.84083464664,-0.540994316553,1.0,0.0,0.0,0.0,1.0,0.0,0.0,0.0,1.0,0.0480182021856,0.0043192114681,-0.185771331191,1.21846967915e-07,0.0,0.0,0.0,1.21846967915e-07,0.0,0.0,0.0,1.21846967915e-07,-0.0196133,0.24516625,9.9243298,9e-08,0.0,0.0,0.0,9e-08,0.0,0.0,0.0,9e-08
1783583648923092510,2865,1783583648923092510,base_link,0.0111294040617,0.0140848440676,-0.84083464664,-0.540994316553,1.0,0.0,0.0,0.0,1.0,0.0,0.0,0.0,1.0,0.0480182021856,0.0043192114681,-0.185771331191,1.21846967915e-07,0.0,0.0,0.0,1.21846967915e-07,0.0,0.0,0.0,1.21846967915e-07,-0.0196133,0.24516625,9.9243298,9e-08,0.0,0.0,0.0,9e-08,0.0,0.0,0.0,9e-08
1783583648923092510,2865,1783583648923092510,base_link,0.0111294040617,0.0140848440676,-0.84083464664,-0.540994316553,1.0,0.0,0.0,0.0,1.0,0.0,0.0,0.0,1.0,0.0480182021856,0.0043192114681,-0.185771331191,1.21846967915e-07,0.0,0.0,0.0,1.21846967915e-07,0.0,0.0,0.0,1.21846967915e-07,-0.0196133,0.24516625,9.9243298,9e-08,0.0,0.0,0.0,9e-08,0.0,0.0,0.0,9e-08
1783583648923092510,2865,1783583648923092510,base_link,0.0111294040617,0.0140848440676,-0.84083464664,-0.540994316553,1.0,0.0,0.0,0.0,1.0,0.0,0.0,0.0,1.0,0.0480182021856,0.0043192114681,-0.185771331191,1.21846967915e-07,0.0,0.0,0.0,1.21846967915e-07,0.0,0.0,0.0,1.21846967915e-07,-0.0196133,0.24516625,9.9243298,9e-08,0.0,0.0,0.0,9e-08,0.0,0.0,0.0,9e-08
1783583648923092510,2865,1783583648923092510,base_link,0.0111294040617,0.0140848440676,-0.84083464664,-0.540994316553,1.0,0.0,0.0,0.0,1.0,0.0,0.0,0.0,1.0,0.0480182021856,0.0043192114681,-0.185771331191,1.21846967915e-07,0.0,0.0,0.0,1.21846967915e-07,0.0,0.0,0.0,1.21846967915e-07,-0.0196133,0.24516625,9.9243298,9e-08,0.0,0.0,0.0,9e-08,0.0,0.0,0.0,9e-08
1783583649164079988,2866,1783583649164079988,base_link,0.0124898898346,0.0168682006195,-0.846835073508,-0.531441271201,1.0,0.0,0.0,0.0,1.0,0.0,0.0,0.0,1.0,-0.0576114207506,-0.00550745660439,0.236555621028,1.21846967915e-07,0.0,0.0,0.0,1.21846967915e-07,0.0,0.0,0.0,1.21846967915e-07,0.0588399,-0.5687857,9.7674234,9e-08,0.0,0.0,0.0,9e-08,0.0,0.0,0.0,9e-08
1783583649164079988,2866,1783583649164079988,base_link,0.0124898898346,0.0168682006195,-0.846835073508,-0.531441271201,1.0,0.0,0.0,0.0,1.0,0.0,0.0,0.0,1.0,-0.0576114207506,-0.00550745660439,0.236555621028,1.21846967915e-07,0.0,0.0,0.0,1.21846967915e-07,0.0,0.0,0.0,1.21846967915e-07,0.0588399,-0.5687857,9.7674234,9e-08,0.0,0.0,0.0,9e-08,0.0,0.0,0.0,9e-08
1783583649164079988,2866,1783583649164079988,base_link,0.0124898898346,0.0168682006195,-0.846835073508,-0.531441271201,1.0,0.0,0.0,0.0,1.0,0.0,0.0,0.0,1.0,-0.0576114207506,-0.00550745660439,0.236555621028,1.21846967915e-07,0.0,0.0,0.0,1.21846967915e-07,0.0,0.0,0.0,1.21846967915e-07,0.0588399,-0.5687857,9.7674234,9e-08,0.0,0.0,0.0,9e-08,0.0,0.0,0.0,9e-08
1783583649164079988,2866,1783583649164079988,base_link,0.0124898898346,0.0168682006195,-0.846835073508,-0.531441271201,1.0,0.0,0.0,0.0,1.0,0.0,0.0,0.0,1.0,-0.0576114207506,-0.00550745660439,0.236555621028,1.21846967915e-07,0.0,0.0,0.0,1.21846967915e-07,0.0,0.0,0.0,1.21846967915e-07,0.0588399,-0.5687857,9.7674234,9e-08,0.0,0.0,0.0,9e-08,0.0,0.0,0.0,9e-08
1783583649164079988,2866,1783583649164079988,base_link,0.0124898898346,0.0168682006195,-0.846835073508,-0.531441271201,1.0,0.0,0.0,0.0,1.0,0.0,0.0,0.0,1.0,-0.0576114207506,-0.00550745660439,0.236555621028,1.21846967915e-07,0.0,0.0,0.0,1.21846967915e-07,0.0,0.0,0.0,1.21846967915e-07,0.0588399,-0.5687857,9.7674234,9e-08,0.0,0.0,0.0,9e-08,0.0,0.0,0.0,9e-08
1783583649164079988,2866,1783583649164079988,base_link,0.0124898898346,0.0168682006195,-0.846835073508,-0.531441271201,1.0,0.0,0.0,0.0,1.0,0.0,0.0,0.0,1.0,-0.0576114207506,-0.00550745660439,0.236555621028,1.21846967915e-07,0.0,0.0,0.0,1.21846967915e-07,0.0,0.0,0.0,1.21846967915e-07,0.0588399,-0.5687857,9.7674234,9e-08,0.0,0.0,0.0,9e-08,0.0,0.0,0.0,9e-08
1783583649164079988,2866,1783583649164079988,base_link,0.0124898898346,0.0168682006195,-0.846835073508,-0.531441271201,1.0,0.0,0.0,0.0,1.0,0.0,0.0,0.0,1.0,-0.0576114207506,-0.00550745660439,0.236555621028,1.21846967915e-07,0.0,0.0,0.0,1.21846967915e-07,0.0,0.0,0.0,1.21846967915e-07,0.0588399,-0.5687857,9.7674234,9e-08,0.0,0.0,0.0,9e-08,0.0,0.0,0.0,9e-08
1783583649164079988,2866,1783583649164079988,base_link,0.0124898898346,0.0168682006195,-0.846835073508,-0.531441271201,1.0,0.0,0.0,0.0,1.0,0.0,0.0,0.0,1.0,-0.0576114207506,-0.00550745660439,0.236555621028,1.21846967915e-07,0.0,0.0,0.0,1.21846967915e-07,0.0,0.0,0.0,1.21846967915e-07,0.0588399,-0.5687857,9.7674234,9e-08,0.0,0.0,0.0,9e-08,0.0,0.0,0.0,9e-08
1783583649164079988,2866,1783583649164079988,base_link,0.0124898898346,0.0168682006195,-0.846835073508,-0.531441271201,1.0,0.0,0.0,0.0,1.0,0.0,0.0,0.0,1.0,-0.0576114207506,-0.00550745660439,0.236555621028,1.21846967915e-07,0.0,0.0,0.0,1.21846967915e-07,0.0,0.0,0.0,1.21846967915e-07,0.0588399,-0.5687857,9.7674234,9e-08,0.0,0.0,0.0,9e-08,0.0,0.0,0.0,9e-08
1783583649164079988,2866,1783583649164079988,base_link,0.0124898898346,0.0168682006195,-0.846835073508,-0.531441271201,1.0,0.0,0.0,0.0,1.0,0.0,0.0,0.0,1.0,-0.0576114207506,-0.00550745660439,0.236555621028,1.21846967915e-07,0.0,0.0,0.0,1.21846967915e-07,0.0,0.0,0.0,1.21846967915e-07,0.0588399,-0.5687857,9.7674234,9e-08,0.0,0.0,0.0,9e-08,0.0,0.0,0.0,9e-08
1783583649164079988,2866,1783583649164079988,base_link,0.0124898898346,0.0168682006195,-0.846835073508,-0.531441271201,1.0,0.0,0.0,0.0,1.0,0.0,0.0,0.0,1.0,-0.0576114207506,-0.00550745660439,0.236555621028,1.21846967915e-07,0.0,0.0,0.0,1.21846967915e-07,0.0,0.0,0.0,1.21846967915e-07,0.0588399,-0.5687857,9.7674234,9e-08,0.0,0.0,0.0,9e-08,0.0,0.0,0.0,9e-08
1783583649164079988,2866,1783583649164079988,base_link,0.0124898898346,0.0168682006195,-0.846835073508,-0.531441271201,1.0,0.0,0.0,0.0,1.0,0.0,0.0,0.0,1.0,-0.0576114207506,-0.00550745660439,0.236555621028,1.21846967915e-07,0.0,0.0,0.0,1.21846967915e-07,0.0,0.0,0.0,1.21846967915e-07,0.0588399,-0.5687857,9.7674234,9e-08,0.0,0.0,0.0,9e-08,0.0,0.0,0.0,9e-08
1783583649164079988,2866,1783583649164079988,base_link,0.0124898898346,0.0168682006195,-0.846835073508,-0.531441271201,1.0,0.0,0.0,0.0,1.0,0.0,0.0,0.0,1.0,-0.0576114207506,-0.00550745660439,0.236555621028,1.21846967915e-07,0.0,0.0,0.0,1.21846967915e-07,0.0,0.0,0.0,1.21846967915e-07,0.0588399,-0.5687857,9.7674234,9e-08,0.0,0.0,0.0,9e-08,0.0,0.0,0.0,9e-08
1783583649164079988,2866,1783583649164079988,base_link,0.0124898898346,0.0168682006195,-0.846835073508,-0.531441271201,1.0,0.0,0.0,0.0,1.0,0.0,0.0,0.0,1.0,-0.0576114207506,-0.00550745660439,0.236555621028,1.21846967915e-07,0.0,0.0,0.0,1.21846967915e-07,0.0,0.0,0.0,1.21846967915e-07,0.0588399,-0.5687857,9.7674234,9e-08,0.0,0.0,0.0,9e-08,0.0,0.0,0.0,9e-08
1783583649164079988,2866,1783583649164079988,base_link,0.0124898898346,0.0168682006195,-0.846835073508,-0.531441271201,1.0,0.0,0.0,0.0,1.0,0.0,0.0,0.0,1.0,-0.0576114207506,-0.00550745660439,0.236555621028,1.21846967915e-07,0.0,0.0,0.0,1.21846967915e-07,0.0,0.0,0.0,1.21846967915e-07,0.0588399,-0.5687857,9.7674234,9e-08,0.0,0.0,0.0,9e-08,0.0,0.0,0.0,9e-08
1783583649164079988,2866,1783583649164079988,base_link,0.0124898898346,0.0168682006195,-0.846835073508,-0.531441271201,1.0,0.0,0.0,0.0,1.0,0.0,0.0,0.0,1.0,-0.0576114207506,-0.00550745660439,0.236555621028,1.21846967915e-07,0.0,0.0,0.0,1.21846967915e-07,0.0,0.0,0.0,1.21846967915e-07,0.0588399,-0.5687857,9.7674234,9e-08,0.0,0.0,0.0,9e-08,0.0,0.0,0.0,9e-08
1783583649164079988,2866,1783583649164079988,base_link,0.0124898898346,0.0168682006195,-0.846835073508,-0.531441271201,1.0,0.0,0.0,0.0,1.0,0.0,0.0,0.0,1.0,-0.0576114207506,-0.00550745660439,0.236555621028,1.21846967915e-07,0.0,0.0,0.0,1.21846967915e-07,0.0,0.0,0.0,1.21846967915e-07,0.0588399,-0.5687857,9.7674234,9e-08,0.0,0.0,0.0,9e-08,0.0,0.0,0.0,9e-08
1783583649164079988,2866,1783583649164079988,base_link,0.0124898898346,0.0168682006195,-0.846835073508,-0.531441271201,1.0,0.0,0.0,0.0,1.0,0.0,0.0,0.0,1.0,-0.0576114207506,-0.00550745660439,0.236555621028,1.21846967915e-07,0.0,0.0,0.0,1.21846967915e-07,0.0,0.0,0.0,1.21846967915e-07,0.0588399,-0.5687857,9.7674234,9e-08,0.0,0.0,0.0,9e-08,0.0,0.0,0.0,9e-08
1783583649164079988,2866,1783583649164079988,base_link,0.0124898898346,0.0168682006195,-0.846835073508,-0.531441271201,1.0,0.0,0.0,0.0,1.0,0.0,0.0,0.0,1.0,-0.0576114207506,-0.00550745660439,0.236555621028,1.21846967915e-07,0.0,0.0,0.0,1.21846967915e-07,0.0,0.0,0.0,1.21846967915e-07,0.0588399,-0.5687857,9.7674234,9e-08,0.0,0.0,0.0,9e-08,0.0,0.0,0.0,9e-08
1783583649164079988,2866,1783583649164079988,base_link,0.0124898898346,0.0168682006195,-0.846835073508,-0.531441271201,1.0,0.0,0.0,0.0,1.0,0.0,0.0,0.0,1.0,-0.0576114207506,-0.00550745660439,0.236555621028,1.21846967915e-07,0.0,0.0,0.0,1.21846967915e-07,0.0,0.0,0.0,1.21846967915e-07,0.0588399,-0.5687857,9.7674234,9e-08,0.0,0.0,0.0,9e-08,0.0,0.0,0.0,9e-08
1783583649164079988,2866,1783583649164079988,base_link,0.0124898898346,0.0168682006195,-0.846835073508,-0.531441271201,1.0,0.0,0.0,0.0,1.0,0.0,0.0,0.0,1.0,-0.0576114207506,-0.00550745660439,0.236555621028,1.21846967915e-07,0.0,0.0,0.0,1.21846967915e-07,0.0,0.0,0.0,1.21846967915e-07,0.0588399,-0.5687857,9.7674234,9e-08,0.0,0.0,0.0,9e-08,0.0,0.0,0.0,9e-08
1783583649164079988,2866,1783583649164079988,base_link,0.0124898898346,0.0168682006195,-0.846835073508,-0.531441271201,1.0,0.0,0.0,0.0,1.0,0.0,0.0,0.0,1.0,-0.0576114207506,-0.00550745660439,0.236555621028,1.21846967915e-07,0.0,0.0,0.0,1.21846967915e-07,0.0,0.0,0.0,1.21846967915e-07,0.0588399,-0.5687857,9.7674234,9e-08,0.0,0.0,0.0,9e-08,0.0,0.0,0.0,9e-08
1783583649164079988,2866,1783583649164079988,base_link,0.0124898898346,0.0168682006195,-0.846835073508,-0.531441271201,1.0,0.0,0.0,0.0,1.0,0.0,0.0,0.0,1.0,-0.0576114207506,-0.00550745660439,0.236555621028,1.21846967915e-07,0.0,0.0,0.0,1.21846967915e-07,0.0,0.0,0.0,1.21846967915e-07,0.0588399,-0.5687857,9.7674234,9e-08,0.0,0.0,0.0,9e-08,0.0,0.0,0.0,9e-08
1783583649164079988,2866,1783583649164079988,base_link,0.0124898898346,0.0168682006195,-0.846835073508,-0.531441271201,1.0,0.0,0.0,0.0,1.0,0.0,0.0,0.0,1.0,-0.0576114207506,-0.00550745660439,0.236555621028,1.21846967915e-07,0.0,0.0,0.0,1.21846967915e-07,0.0,0.0,0.0,1.21846967915e-07,0.0588399,-0.5687857,9.7674234,9e-08,0.0,0.0,0.0,9e-08,0.0,0.0,0.0,9e-08
1783583649164079988,2866,1783583649164079988,base_link,0.0124898898346,0.0168682006195,-0.846835073508,-0.531441271201,1.0,0.0,0.0,0.0,1.0,0.0,0.0,0.0,1.0,-0.0576114207506,-0.00550745660439,0.236555621028,1.21846967915e-07,0.0,0.0,0.0,1.21846967915e-07,0.0,0.0,0.0,1.21846967915e-07,0.0588399,-0.5687857,9.7674234,9e-08,0.0,0.0,0.0,9e-08,0.0,0.0,0.0,9e-08
1783583649164079988,2866,1783583649164079988,base_link,0.0124898898346,0.0168682006195,-0.846835073508,-0.531441271201,1.0,0.0,0.0,0.0,1.0,0.0,0.0,0.0,1.0,-0.0576114207506,-0.00550745660439,0.236555621028,1.21846967915e-07,0.0,0.0,0.0,1.21846967915e-07,0.0,0.0,0.0,1.21846967915e-07,0.0588399,-0.5687857,9.7674234,9e-08,0.0,0.0,0.0,9e-08,0.0,0.0,0.0,9e-08
1783583649423079476,2867,1783583649423079476,base_link,0.0102722818186,0.0143304033782,-0.838297932918,-0.544927238657,1.0,0.0,0.0,0.0,1.0,0.0,0.0,0.0,1.0,0.0156165678054,-0.00326090166345,-0.12284822017,1.21846967915e-07,0.0,0.0,0.0,1.21846967915e-07,0.0,0.0,0.0,1.21846967915e-07,0.0588399,-0.5687857,9.7674234,9e-08,0.0,0.0,0.0,9e-08,0.0,0.0,0.0,9e-08
1783583649423079476,2867,1783583649423079476,base_link,0.0102722818186,0.0143304033782,-0.838297932918,-0.544927238657,1.0,0.0,0.0,0.0,1.0,0.0,0.0,0.0,1.0,0.0156165678054,-0.00326090166345,-0.12284822017,1.21846967915e-07,0.0,0.0,0.0,1.21846967915e-07,0.0,0.0,0.0,1.21846967915e-07,0.0588399,-0.5687857,9.7674234,9e-08,0.0,0.0,0.0,9e-08,0.0,0.0,0.0,9e-08
1783583649423079476,2867,1783583649423079476,base_link,0.0102722818186,0.0143304033782,-0.838297932918,-0.544927238657,1.0,0.0,0.0,0.0,1.0,0.0,0.0,0.0,1.0,0.0156165678054,-0.00326090166345,-0.12284822017,1.21846967915e-07,0.0,0.0,0.0,1.21846967915e-07,0.0,0.0,0.0,1.21846967915e-07,0.0588399,-0.5687857,9.7674234,9e-08,0.0,0.0,0.0,9e-08,0.0,0.0,0.0,9e-08
1783583649423079476,2867,1783583649423079476,base_link,0.0102722818186,0.0143304033782,-0.838297932918,-0.544927238657,1.0,0.0,0.0,0.0,1.0,0.0,0.0,0.0,1.0,0.0156165678054,-0.00326090166345,-0.12284822017,1.21846967915e-07,0.0,0.0,0.0,1.21846967915e-07,0.0,0.0,0.0,1.21846967915e-07,0.0588399,-0.5687857,9.7674234,9e-08,0.0,0.0,0.0,9e-08,0.0,0.0,0.0,9e-08
1783583649423079476,2867,1783583649423079476,base_link,0.0102722818186,0.0143304033782,-0.838297932918,-0.544927238657,1.0,0.0,0.0,0.0,1.0,0.0,0.0,0.0,1.0,0.0156165678054,-0.00326090166345,-0.12284822017,1.21846967915e-07,0.0,0.0,0.0,1.21846967915e-07,0.0,0.0,0.0,1.21846967915e-07,0.0588399,-0.5687857,9.7674234,9e-08,0.0,0.0,0.0,9e-08,0.0,0.0,0.0,9e-08
1783583649423079476,2867,1783583649423079476,base_link,0.0102722818186,0.0143304033782,-0.838297932918,-0.544927238657,1.0,0.0,0.0,0.0,1.0,0.0,0.0,0.0,1.0,0.0156165678054,-0.00326090166345,-0.12284822017,1.21846967915e-07,0.0,0.0,0.0,1.21846967915e-07,0.0,0.0,0.0,1.21846967915e-07,0.0588399,-0.5687857,9.7674234,9e-08,0.0,0.0,0.0,9e-08,0.0,0.0,0.0,9e-08
1783583649423079476,2867,1783583649423079476,base_link,0.0102722818186,0.0143304033782,-0.838297932918,-0.544927238657,1.0,0.0,0.0,0.0,1.0,0.0,0.0,0.0,1.0,0.0156165678054,-0.00326090166345,-0.12284822017,1.21846967915e-07,0.0,0.0,0.0,1.21846967915e-07,0.0,0.0,0.0,1.21846967915e-07,0.0588399,-0.5687857,9.7674234,9e-08,0.0,0.0,0.0,9e-08,0.0,0.0,0.0,9e-08
1783583649423079476,2867,1783583649423079476,base_link,0.0102722818186,0.0143304033782,-0.838297932918,-0.544927238657,1.0,0.0,0.0,0.0,1.0,0.0,0.0,0.0,1.0,0.0156165678054,-0.00326090166345,-0.12284822017,1.21846967915e-07,0.0,0.0,0.0,1.21846967915e-07,0.0,0.0,0.0,1.21846967915e-07,0.0588399,-0.5687857,9.7674234,9e-08,0.0,0.0,0.0,9e-08,0.0,0.0,0.0,9e-08
