%time,field.header.seq,field.header.stamp,field.header.frame_id,field.orientation.x,field.orientation.y,field.orientation.z,field.orientation.w,field.orientation_covariance0,field.orientation_covariance1,field.orientation_covariance2,field.orientation_covariance3,field.orientation_covariance4,field.orientation_covariance5,field.orientation_covariance6,field.orientation_covariance7,field.orientation_covariance8,field.angular_velocity.x,field.angular_velocity.y,field.angular_velocity.z,field.angular_velocity_covariance0,field.angular_velocity_covariance1,field.angular_velocity_covariance2,field.angular_velocity_covariance3,field.angular_velocity_covariance4,field.angular_velocity_covariance5,field.angular_velocity_covariance6,field.angular_velocity_covariance7,field.angular_velocity_covariance8,field.linear_acceleration.x,field.linear_acceleration.y,field.linear_acceleration.z,field.linear_acceleration_covariance0,field.linear_acceleration_covariance1,field.linear_acceleration_covariance2,field.linear_acceleration_covariance3,field.linear_acceleration_covariance4,field.linear_acceleration_covariance5,field.linear_acceleration_covariance6,field.linear_acceleration_covariance7,field.linear_acceleration_covariance8
1783583859668215843,3708,1783583859668215843,base_link,0.00195177335105,0.0188195190524,-0.999015291074,-0.0401305928556,1.0,0.0,0.0,0.0,1.0,0.0,0.0,0.0,1.0,0.00164392730221,0.00547574274242,-0.0379700474441,1.21846967915e-07,0.0,0.0,0.0,1.21846967915e-07,0.0,0.0,0.0,1.21846967915e-07,-0.00980665,-0.3334261,9.85568325,9e-08,0.0,0.0,0.0,9e-08,0.0,0.0,0.0,9e-08
1783583859668215843,3708,1783583859668215843,base_link,0.00195177335105,0.0188195190524,-0.999015291074,-0.0401305928556,1.0,0.0,0.0,0.0,1.0,0.0,0.0,0.0,1.0,0.00164392730221,0.00547574274242,-0.0379700474441,1.21846967915e-07,0.0,0.0,0.0,1.21846967915e-07,0.0,0.0,0.0,1.21846967915e-07,-0.00980665,-0.3334261,9.85568325,9e-08,0.0,0.0,0.0,9e-08,0.0,0.0,0.0,9e-08
1783583859668215843,3708,1783583859668215843,base_link,0.00195177335105,0.0188195190524,-0.999015291074,-0.0401305928556,1.0,0.0,0.0,0.0,1.0,0.0,0.0,0.0,1.0,0.00164392730221,0.00547574274242,-0.0379700474441,1.21846967915e-07,0.0,0.0,0.0,1.21846967915e-07,0.0,0.0,0.0,1.21846967915e-07,-0.00980665,-0.3334261,9.85568325,9e-08,0.0,0.0,0.0,9e-08,0.0,0.0,0.0,9e-08
1783583859668215843,3708,1783583859668215843,base_link,0.00195177335105,0.0188195190524,-0.999015291074,-0.0401305928556,1.0,0.0,0.0,0.0,1.0,0.0,0.0,0.0,1.0,0.00164392730221,0.00547574274242,-0.0379700474441,1.21846967915e-07,0.0,0.0,0.0,1.21846967915e-07,0.0,0.0,0.0,1.21846967915e-07,-0.00980665,-0.3334261,9.85568325,9e-08,0.0,0.0,0.0,9e-08,0.0,0.0,0.0,9e-08
1783583859668215843,3708,1783583859668215843,base_link,0.00195177335105,0.0188195190524,-0.999015291074,-0.0401305928556,1.0,0.0,0.0,0.0,1.0,0.0,0.0,0.0,1.0,0.00164392730221,0.00547574274242,-0.0379700474441,1.21846967915e-07,0.0,0.0,0.0,1.21846967915e-07,0.0,0.0,0.0,1.21846967915e-07,-0.00980665,-0.3334261,9.85568325,9e-08,0.0,0.0,0.0,9e-08,0.0,0.0,0.0,9e-08
1783583859668215843,3708,1783583859668215843,base_link,0.00195177335105,0.0188195190524,-0.999015291074,-0.0401305928556,1.0,0.0,0.0,0.0,1.0,0.0,0.0,0.0,1.0,0.00164392730221,0.00547574274242,-0.0379700474441,1.21846967915e-07,0.0,0.0,0.0,1.21846967915e-07,0.0,0.0,0.0,1.21846967915e-07,-0.00980665,-0.3334261,9.85568325,9e-08,0.0,0.0,0.0,9e-08,0.0,0.0,0.0,9e-08
1783583859668215843,3708,1783583859668215843,base_link,0.00195177335105,0.0188195190524,-0.999015291074,-0.0401305928556,1.0,0.0,0.0,0.0,1.0,0.0,0.0,0.0,1.0,0.00164392730221,0.00547574274242,-0.0379700474441,1.21846967915e-07,0.0,0.0,0.0,1.21846967915e-07,0.0,0.0,0.0,1.21846967915e-07,-0.00980665,-0.3334261,9.85568325,9e-08,0.0,0.0,0.0,9e-08,0.0,0.0,0.0,9e-08
1783583859668215843,3708,1783583859668215843,base_link,0.00195177335105,0.0188195190524,-0.999015291074,-0.0401305928556,1.0,0.0,0.0,0.0,1.0,0.0,0.0,0.0,1.0,0.00164392730221,0.00547574274242,-0.0379700474441,1.21846967915e-07,0.0,0.0,0.0,1.21846967915e-07,0.0,0.0,0.0,1.21846967915e-07,-0.00980665,-0.3334261,9.85568325,9e-08,0.0,0.0,0.0,9e-08,0.0,0.0,0.0,9e-08
1783583859668215843,3708,1783583859668215843,base_link,0.00195177335105,0.0188195190524,-0.999015291074,-0.0401305928556,1.0,0.0,0.0,0.0,1.0,0.0,0.0,0.0,1.0,0.00164392730221,0.00547574274242,-0.0379700474441,1.21846967915e-07,0.0,0.0,0.0,1.21846967915e-07,0.0,0.0,0.0,1.21846967915e-07,-0.00980665,-0.3334261,9.85568325,9e-08,0.0,0.0,0.0,9e-08,0.0,0.0,0.0,9e-08
1783583859668215843,3708,1783583859668215843,base_link,0.00195177335105,0.0188195190524,-0.999015291074,-0.0401305928556,1.0,0.0,0.0,0.0,1.0,0.0,0.0,0.0,1.0,0.00164392730221,0.00547574274242,-0.0379700474441,1.21846967915e-07,0.0,0.0,0.0,1.21846967915e-07,0.0,0.0,0.0,1.21846967915e-07,-0.00980665,-0.3334261,9.85568325,9e-08,0.0,0.0,0.0,9e-08,0.0,0.0,0.0,9e-08
1783583859668215843,3708,1783583859668215843,base_link,0.00195177335105,0.0188195190524,-0.999015291074,-0.0401305928556,1.0,0.0,0.0,0.0,1.0,0.0,0.0,0.0,1.0,0.00164392730221,0.00547574274242,-0.0379700474441,1.21846967915e-07,0.0,0.0,0.0,1.21846967915e-07,0.0,0.0,0.0,1.21846967915e-07,-0.00980665,-0.3334261,9.85568325,9e-08,0.0,0.0,0.0,9e-08,0.0,0.0,0.0,9e-08
1783583859668215843,3708,1783583859668215843,base_link,0.00195177335105,0.0188195190524,-0.999015291074,-0.0401305928556,1.0,0.0,0.0,0.0,1.0,0.0,0.0,0.0,1.0,0.00164392730221,0.00547574274242,-0.0379700474441,1.21846967915e-07,0.0,0.0,0.0,1.21846967915e-07,0.0,0.0,0.0,1.21846967915e-07,-0.00980665,-0.3334261,9.85568325,9e-08,0.0,0.0,0.0,9e-08,0.0,0.0,0.0,9e-08
1783583859668215843,3708,1783583859668215843,base_link,0.00195177335105,0.0188195190524,-0.999015291074,-0.0401305928556,1.0,0.0,0.0,0.0,1.0,0.0,0.0,0.0,1.0,0.00164392730221,0.00547574274242,-0.0379700474441,1.21846967915e-07,0.0,0.0,0.0,1.21846967915e-07,0.0,0.0,0.0,1.21846967915e-07,-0.00980665,-0.3334261,9.85568325,9e-08,0.0,0.0,0.0,9e-08,0.0,0.0,0.0,9e-08
1783583859668215843,3708,1783583859668215843,base_link,0.00195177335105,0.0188195190524,-0.999015291074,-0.0401305928556,1.0,0.0,0.0,0.0,1.0,0.0,0.0,0.0,1.0,0.00164392730221,0.00547574274242,-0.0379700474441,1.21846967915e-07,0.0,0.0,0.0,1.21846967915e-07,0.0,0.0,0.0,1.21846967915e-07,-0.00980665,-0.3334261,9.85568325,9e-08,0.0,0.0,0.0,9e-08,0.0,0.0,0.0,9e-08
1783583859668215843,3708,1783583859668215843,base_link,0.00195177335105,0.0188195190524,-0.999015291074,-0.0401305928556,1.0,0.0,0.0,0.0,1.0,0.0,0.0,0.0,1.0,0.00164392730221,0.00547574274242,-0.0379700474441,1.21846967915e-07,0.0,0.0,0.0,1.21846967915e-07,0.0,0.0,0.0,1.21846967915e-07,-0.00980665,-0.3334261,9.85568325,9e-08,0.0,0.0,0.0,9e-08,0.0,0.0,0.0,9e-08
1783583859668215843,3708,1783583859668215843,base_link,0.00195177335105,0.0188195190524,-0.999015291074,-0.0401305928556,1.0,0.0,0.0,0.0,1.0,0.0,0.0,0.0,1.0,0.00164392730221,0.00547574274242,-0.0379700474441,1.21846967915e-07,0.0,0.0,0.0,1.21846967915e-07,0.0,0.0,0.0,1.21846967915e-07,-0.00980665,-0.3334261,9.85568325,9e-08,0.0,0.0,0.0,9e-08,0.0,0.0,0.0,9e-08
1783583859668215843,3708,1783583859668215843,base_link,0.00195177335105,0.0188195190524,-0.999015291074,-0.0401305928556,1.0,0.0,0.0,0.0,1.0,0.0,0.0,0.0,1.0,0.00164392730221,0.00547574274242,-0.0379700474441,1.21846967915e-07,0.0,0.0,0.0,1.21846967915e-07,0.0,0.0,0.0,1.21846967915e-07,-0.00980665,-0.3334261,9.85568325,9e-08,0.0,0.0,0.0,9e-08,0.0,0.0,0.0,9e-08
1783583859668215843,3708,1783583859668215843,base_link,0.00195177335105,0.0188195190524,-0.999015291074,-0.0401305928556,1.0,0.0,0.0,0.0,1.0,0.0,0.0,0.0,1.0,0.00164392730221,0.00547574274242,-0.0379700474441,1.21846967915e-07,0.0,0.0,0.0,1.21846967915e-07,0.0,0.0,0.0,1.21846967915e-07,-0.00980665,-0.3334261,9.85568325,9e-08,0.0,0.0,0.0,9e-08,0.0,0.0,0.0,9e-08
1783583859668215843,3708,1783583859668215843,base_link,0.00195177335105,0.0188195190524,-0.999015291074,-0.0401305928556,1.0,0.0,0.0,0.0,1.0,0.0,0.0,0.0,1.0,0.00164392730221,0.00547574274242,-0.0379700474441,1.21846967915e-07,0.0,0.0,0.0,1.21846967915e-07,0.0,0.0,0.0,1.21846967915e-07,-0.00980665,-0.3334261,9.85568325,9e-08,0.0,0.0,0.0,9e-08,0.0,0.0,0.0,9e-08
1783583859668215843,3708,1783583859668215843,base_link,0.00195177335105,0.0188195190524,-0.999015291074,-0.0401305928556,1.0,0.0,0.0,0.0,1.0,0.0,0.0,0.0,1.0,0.00164392730221,0.00547574274242,-0.0379700474441,1.21846967915e-07,0.0,0.0,0.0,1.21846967915e-07,0.0,0.0,0.0,1.21846967915e-07,-0.00980665,-0.3334261,9.85568325,9e-08,0.0,0.0,0.0,9e-08,0.0,0.0,0.0,9e-08
1783583859668215843,3708,1783583859668215843,base_link,0.00195177335105,0.0188195190524,-0.999015291074,-0.0401305928556,1.0,0.0,0.0,0.0,1.0,0.0,0.0,0.0,1.0,0.00164392730221,0.00547574274242,-0.0379700474441,1.21846967915e-07,0.0,0.0,0.0,1.21846967915e-07,0.0,0.0,0.0,1.21846967915e-07,-0.00980665,-0.3334261,9.85568325,9e-08,0.0,0.0,0.0,9e-08,0.0,0.0,0.0,9e-08
1783583859668215843,3708,1783583859668215843,base_link,0.00195177335105,0.0188195190524,-0.999015291074,-0.0401305928556,1.0,0.0,0.0,0.0,1.0,0.0,0.0,0.0,1.0,0.00164392730221,0.00547574274242,-0.0379700474441,1.21846967915e-07,0.0,0.0,0.0,1.21846967915e-07,0.0,0.0,0.0,1.21846967915e-07,-0.00980665,-0.3334261,9.85568325,9e-08,0.0,0.0,0.0,9e-08,0.0,0.0,0.0,9e-08
1783583859668215843,3708,1783583859668215843,base_link,0.00195177335105,0.0188195190524,-0.999015291074,-0.0401305928556,1.0,0.0,0.0,0.0,1.0,0.0,0.0,0.0,1.0,0.00164392730221,0.00547574274242,-0.0379700474441,1.21846967915e-07,0.0,0.0,0.0,1.21846967915e-07,0.0,0.0,0.0,1.21846967915e-07,-0.00980665,-0.3334261,9.85568325,9e-08,0.0,0.0,0.0,9e-08,0.0,0.0,0.0,9e-08
1783583859668215843,3708,1783583859668215843,base_link,0.00195177335105,0.0188195190524,-0.999015291074,-0.0401305928556,1.0,0.0,0.0,0.0,1.0,0.0,0.0,0.0,1.0,0.00164392730221,0.00547574274242,-0.0379700474441,1.21846967915e-07,0.0,0.0,0.0,1.21846967915e-07,0.0,0.0,0.0,1.21846967915e-07,-0.00980665,-0.3334261,9.85568325,9e-08,0.0,0.0,0.0,9e-08,0.0,0.0,0.0,9e-08
1783583859668215843,3708,1783583859668215843,base_link,0.00195177335105,0.0188195190524,-0.999015291074,-0.0401305928556,1.0,0.0,0.0,0.0,1.0,0.0,0.0,0.0,1.0,0.00164392730221,0.00547574274242,-0.0379700474441,1.21846967915e-07,0.0,0.0,0.0,1.21846967915e-07,0.0,0.0,0.0,1.21846967915e-07,-0.00980665,-0.3334261,9.85568325,9e-08,0.0,0.0,0.0,9e-08,0.0,0.0,0.0,9e-08
1783583859668215843,3708,1783583859668215843,base_link,0.00195177335105,0.0188195190524,-0.999015291074,-0.0401305928556,1.0,0.0,0.0,0.0,1.0,0.0,0.0,0.0,1.0,0.00164392730221,0.00547574274242,-0.0379700474441,1.21846967915e-07,0.0,0.0,0.0,1.21846967915e-07,0.0,0.0,0.0,1.21846967915e-07,-0.00980665,-0.3334261,9.85568325,9e-08,0.0,0.0,0.0,9e-08,0.0,0.0,0.0,9e-08
1783583859928218147,3709,1783583859928218147,base_link,0.00159351326059,0.0189646541659,-0.99877721723,-0.0456275459578,1.0,0.0,0.0,0.0,1.0,0.0,0.0,0.0,1.0,-0.00591449765489,-0.00311991013587,-0.0381799042225,1.21846967915e-07,0.0,0.0,0.0,1.21846967915e-07,0.0,0.0,0.0,1.21846967915e-07,-0.00980665,-0.3334261,9.85568325,9e-08,0.0,0.0,0.0,9e-08,0.0,0.0,0.0,9e-08
1783583859928218147,3709,1783583859928218147,base_link,0.00159351326059,0.0189646541659,-0.99877721723,-0.0456275459578,1.0,0.0,0.0,0.0,1.0,0.0,0.0,0.0,1.0,-0.00591449765489,-0.00311991013587,-0.0381799042225,1.21846967915e-07,0.0,0.0,0.0,1.21846967915e-07,0.0,0.0,0.0,1.21846967915e-07,-0.00980665,-0.3334261,9.85568325,9e-08,0.0,0.0,0.0,9e-08,0.0,0.0,0.0,9e-08
1783583859928218147,3709,1783583859928218147,base_link,0.00159351326059,0.0189646541659,-0.99877721723,-0.0456275459578,1.0,0.0,0.0,0.0,1.0,0.0,0.0,0.0,1.0,-0.00591449765489,-0.00311991013587,-0.0381799042225,1.21846967915e-07,0.0,0.0,0.0,1.21846967915e-07,0.0,0.0,0.0,1.21846967915e-07,-0.00980665,-0.3334261,9.85568325,9e-08,0.0,0.0,0.0,9e-08,0.0,0.0,0.0,9e-08
1783583859928218147,3709,1783583859928218147,base_link,0.00159351326059,0.0189646541659,-0.99877721723,-0.0456275459578,1.0,0.0,0.0,0.0,1.0,0.0,0.0,0.0,1.0,-0.00591449765489,-0.00311991013587,-0.0381799042225,1.21846967915e-07,0.0,0.0,0.0,1.21846967915e-07,0.0,0.0,0.0,1.21846967915e-07,-0.00980665,-0.3334261,9.85568325,9e-08,0.0,0.0,0.0,9e-08,0.0,0.0,0.0,9e-08
1783583859928218147,3709,1783583859928218147,base_link,0.00159351326059,0.0189646541659,-0.99877721723,-0.0456275459578,1.0,0.0,0.0,0.0,1.0,0.0,0.0,0.0,1.0,-0.00591449765489,-0.00311991013587,-0.0381799042225,1.21846967915e-07,0.0,0.0,0.0,1.21846967915e-07,0.0,0.0,0.0,1.21846967915e-07,-0.00980665,-0.3334261,9.85568325,9e-08,0.0,0.0,0.0,9e-08,0.0,0.0,0.0,9e-08
1783583859928218147,3709,1783583859928218147,base_link,0.00159351326059,0.0189646541659,-0.99877721723,-0.0456275459578,1.0,0.0,0.0,0.0,1.0,0.0,0.0,0.0,1.0,-0.00591449765489,-0.00311991013587,-0.0381799042225,1.21846967915e-07,0.0,0.0,0.0,1.21846967915e-07,0.0,0.0,0.0,1.21846967915e-07,-0.00980665,-0.3334261,9.85568325,9e-08,0.0,0.0,0.0,9e-08,0.0,0.0,0.0,9e-08
1783583859928218147,3709,1783583859928218147,base_link,0.00159351326059,0.0189646541659,-0.99877721723,-0.0456275459578,1.0,0.0,0.0,0.0,1.0,0.0,0.0,0.0,1.0,-0.00591449765489,-0.00311991013587,-0.0381799042225,1.21846967915e-07,0.0,0.0,0.0,1.21846967915e-07,0.0,0.0,0.0,1.21846967915e-07,-0.00980665,-0.3334261,9.85568325,9e-08,0.0,0.0,0.0,9e-08,0.0,0.0,0.0,9e-08
1783583859928218147,3709,1783583859928218147,base_link,0.00159351326059,0.0189646541659,-0.99877721723,-0.0456275459578,1.0,0.0,0.0,0.0,1.0,0.0,0.0,0.0,1.0,-0.00591449765489,-0.00311991013587,-0.0381799042225,1.21846967915e-07,0.0,0.0,0.0,1.21846967915e-07,0.0,0.0,0.0,1.21846967915e-07,-0.00980665,-0.3334261,9.85568325,9e-08,0.0,0.0,0.0,9e-08,0.0,0.0,0.0,9e-08
1783583859928218147,3709,1783583859928218147,base_link,0.00159351326059,0.0189646541659,-0.99877721723,-0.0456275459578,1.0,0.0,0.0,0.0,1.0,0.0,0.0,0.0,1.0,-0.00591449765489,-0.00311991013587,-0.0381799042225,1.21846967915e-07,0.0,0.0,0.0,1.21846967915e-07,0.0,0.0,0.0,1.21846967915e-07,-0.00980665,-0.3334261,9.85568325,9e-08,0.0,0.0,0.0,9e-08,0.0,0.0,0.0,9e-08
1783583859928218147,3709,1783583859928218147,base_link,0.00159351326059,0.0189646541659,-0.99877721723,-0.0456275459578,1.0,0.0,0.0,0.0,1.0,0.0,0.0,0.0,1.0,-0.00591449765489,-0.00311991013587,-0.0381799042225,1.21846967915e-07,0.0,0.0,0.0,1.21846967915e-07,0.0,0.0,0.0,1.21846967915e-07,-0.00980665,-0.3334261,9.85568325,9e-08,0.0,0.0,0.0,9e-08,0.0,0.0,0.0,9e-08
1783583859928218147,3709,1783583859928218147,base_link,0.00159351326059,0.0189646541659,-0.99877721723,-0.0456275459578,1.0,0.0,0.0,0.0,1.0,0.0,0.0,0.0,1.0,-0.00591449765489,-0.00311991013587,-0.0381799042225,1.21846967915e-07,0.0,0.0,0.0,1.21846967915e-07,0.0,0.0,0.0,1.21846967915e-07,-0.00980665,-0.3334261,9.85568325,9e-08,0.0,0.0,0.0,9e-08,0.0,0.0,0.0,9e-08
1783583859928218147,3709,1783583859928218147,base_link,0.00159351326059,0.0189646541659,-0.99877721723,-0.0456275459578,1.0,0.0,0.0,0.0,1.0,0.0,0.0,0.0,1.0,-0.00591449765489,-0.00311991013587,-0.0381799042225,1.21846967915e-07,0.0,0.0,0.0,1.21846967915e-07,0.0,0.0,0.0,1.21846967915e-07,-0.00980665,-0.3334261,9.85568325,9e-08,0.0,0.0,0.0,9e-08,0.0,0.0,0.0,9e-08
1783583859928218147,3709,1783583859928218147,base_link,0.00159351326059,0.0189646541659,-0.99877721723,-0.0456275459578,1.0,0.0,0.0,0.0,1.0,0.0,0.0,0.0,1.0,-0.00591449765489,-0.00311991013587,-0.0381799042225,1.21846967915e-07,0.0,0.0,0.0,1.21846967915e-07,0.0,0.0,0.0,1.21846967915e-07,-0.00980665,-0.3334261,9.85568325,9e-08,0.0,0.0,0.0,9e-08,0.0,0.0,0.0,9e-08
1783583859928218147,3709,1783583859928218147,base_link,0.00159351326059,0.0189646541659,-0.99877721723,-0.0456275459578,1.0,0.0,0.0,0.0,1.0,0.0,0.0,0.0,1.0,-0.00591449765489,-0.00311991013587,-0.0381799042225,1.21846967915e-07,0.0,0.0,0.0,1.21846967915e-07,0.0,0.0,0.0,1.21846967915e-07,-0.00980665,-0.3334261,9.85568325,9e-08,0.0,0.0,0.0,9e-08,0.0,0.0,0.0,9e-08
1783583859928218147,3709,1783583859928218147,base_link,0.00159351326059,0.0189646541659,-0.99877721723,-0.0456275459578,1.0,0.0,0.0,0.0,1.0,0.0,0.0,0.0,1.0,-0.00591449765489,-0.00311991013587,-0.0381799042225,1.21846967915e-07,0.0,0.0,0.0,1.21846967915e-07,0.0,0.0,0.0,1.21846967915e-07,-0.00980665,-0.3334261,9.85568325,9e-08,0.0,0.0,0.0,9e-08,0.0,0.0,0.0,9e-08
1783583859928218147,3709,1783583859928218147,base_link,0.00159351326059,0.0189646541659,-0.99877721723,-0.0456275459578,1.0,0.0,0.0,0.0,1.0,0.0,0.0,0.0,1.0,-0.00591449765489,-0.00311991013587,-0.0381799042225,1.21846967915e-07,0.0,0.0,0.0,1.21846967915e-07,0.0,0.0,0.0,1.21846967915e-07,-0.00980665,-0.3334261,9.85568325,9e-08,0.0,0.0,0.0,9e-08,0.0,0.0,0.0,9e-08
1783583859928218147,3709,1783583859928218147,base_link,0.00159351326059,0.0189646541659,-0.99877721723,-0.0456275459578,1.0,0.0,0.0,0.0,1.0,0.0,0.0,0.0,1.0,-0.00591449765489,-0.00311991013587,-0.0381799042225,1.21846967915e-07,0.0,0.0,0.0,1.21846967915e-07,0.0,0.0,0.0,1.21846967915e-07,-0.00980665,-0.3334261,9.85568325,9e-08,0.0,0.0,0.0,9e-08,0.0,0.0,0.0,9e-08
1783583859928218147,3709,1783583859928218147,base_link,0.00159351326059,0.0189646541659,-0.99877721723,-0.0456275459578,1.0,0.0,0.0,0.0,1.0,0.0,0.0,0.0,1.0,-0.00591449765489,-0.00311991013587,-0.0381799042225,1.21846967915e-07,0.0,0.0,0.0,1.21846967915e-07,0.0,0.0,0.0,1.21846967915e-07,-0.00980665,-0.3334261,9.85568325,9e-08,0.0,0.0,0.0,9e-08,0.0,0.0,0.0,9e-08
1783583859928218147,3709,1783583859928218147,base_link,0.00159351326059,0.0189646541659,-0.99877721723,-0.0456275459578,1.0,0.0,0.0,0.0,1.0,0.0,0.0,0.0,1.0,-0.00591449765489,-0.00311991013587,-0.0381799042225,1.21846967915e-07,0.0,0.0,0.0,1.21846967915e-07,0.0,0.0,0.0,1.21846967915e-07,-0.00980665,-0.3334261,9.85568325,9e-08,0.0,0.0,0.0,9e-08,0.0,0.0,0.0,9e-08
1783583859928218147,3709,1783583859928218147,base_link,0.00159351326059,0.0189646541659,-0.99877721723,-0.0456275459578,1.0,0.0,0.0,0.0,1.0,0.0,0.0,0.0,1.0,-0.00591449765489,-0.00311991013587,-0.0381799042225,1.21846967915e-07,0.0,0.0,0.0,1.21846967915e-07,0.0,0.0,0.0,1.21846967915e-07,-0.00980665,-0.3334261,9.85568325,9e-08,0.0,0.0,0.0,9e-08,0.0,0.0,0.0,9e-08
1783583859928218147,3709,1783583859928218147,base_link,0.00159351326059,0.0189646541659,-0.99877721723,-0.0456275459578,1.0,0.0,0.0,0.0,1.0,0.0,0.0,0.0,1.0,-0.00591449765489,-0.00311991013587,-0.0381799042225,1.21846967915e-07,0.0,0.0,0.0,1.21846967915e-07,0.0,0.0,0.0,1.21846967915e-07,-0.00980665,-0.3334261,9.85568325,9e-08,0.0,0.0,0.0,9e-08,0.0,0.0,0.0,9e-08
1783583859928218147,3709,1783583859928218147,base_link,0.00159351326059,0.0189646541659,-0.99877721723,-0.0456275459578,1.0,0.0,0.0,0.0,1.0,0.0,0.0,0.0,1.0,-0.00591449765489,-0.00311991013587,-0.0381799042225,1.21846967915e-07,0.0,0.0,0.0,1.21846967915e-07,0.0,0.0,0.0,1.21846967915e-07,-0.00980665,-0.3334261,9.85568325,9e-08,0.0,0.0,0.0,9e-08,0.0,0.0,0.0,9e-08
1783583859928218147,3709,1783583859928218147,base_link,0.00159351326059,0.0189646541659,-0.99877721723,-0.0456275459578,1.0,0.0,0.0,0.0,1.0,0.0,0.0,0.0,1.0,-0.00591449765489,-0.00311991013587,-0.0381799042225,1.21846967915e-07,0.0,0.0,0.0,1.21846967915e-07,0.0,0.0,0.0,1.21846967915e-07,-0.00980665,-0.3334261,9.85568325,9e-08,0.0,0.0,0.0,9e-08,0.0,0.0,0.0,9e-08
1783583859928218147,3709,1783583859928218147,base_link,0.00159351326059,0.0189646541659,-0.99877721723,-0.0456275459578,1.0,0.0,0.0,0.0,1.0,0.0,0.0,0.0,1.0,-0.00591449765489,-0.00311991013587,-0.0381799042225,1.21846967915e-07,0.0,0.0,0.0,1.21846967915e-07,0.0,0.0,0.0,1.21846967915e-07,-0.00980665,-0.3334261,9.85568325,9e-08,0.0,0.0,0.0,9e-08,0.0,0.0,0.0,9e-08
1783583860169371516,3710,1783583860169371516,base_link,0.00133323935917,0.0194422676219,-0.998525023393,-0.0506754216515,1.0,0.0,0.0,0.0,1.0,0.0,0.0,0.0,1.0,-0.00176813721191,0.000378331169486,-0.0363832004368,1.21846967915e-07,0.0,0.0,0.0,1.21846967915e-07,0.0,0.0,0.0,1.21846967915e-07,-0.00980665,-0.3334261,9.81645665,9e-08,0.0,0.0,0.0,9e-08,0.0,0.0,0.0,9e-08
1783583860169371516,3710,1783583860169371516,base_link,0.00133323935917,0.0194422676219,-0.998525023393,-0.0506754216515,1.0,0.0,0.0,0.0,1.0,0.0,0.0,0.0,1.0,-0.00176813721191,0.000378331169486,-0.0363832004368,1.21846967915e-07,0.0,0.0,0.0,1.21846967915e-07,0.0,0.0,0.0,1.21846967915e-07,-0.00980665,-0.3334261,9.81645665,9e-08,0.0,0.0,0.0,9e-08,0.0,0.0,0.0,9e-08
1783583860169371516,3710,1783583860169371516,base_link,0.00133323935917,0.0194422676219,-0.998525023393,-0.0506754216515,1.0,0.0,0.0,0.0,1.0,0.0,0.0,0.0,1.0,-0.00176813721191,0.000378331169486,-0.0363832004368,1.21846967915e-07,0.0,0.0,0.0,1.21846967915e-07,0.0,0.0,0.0,1.21846967915e-07,-0.00980665,-0.3334261,9.81645665,9e-08,0.0,0.0,0.0,9e-08,0.0,0.0,0.0,9e-08
1783583860169371516,3710,1783583860169371516,base_link,0.00133323935917,0.0194422676219,-0.998525023393,-0.0506754216515,1.0,0.0,0.0,0.0,1.0,0.0,0.0,0.0,1.0,-0.00176813721191,0.000378331169486,-0.0363832004368,1.21846967915e-07,0.0,0.0,0.0,1.21846967915e-07,0.0,0.0,0.0,1.21846967915e-07,-0.00980665,-0.3334261,9.81645665,9e-08,0.0,0.0,0.0,9e-08,0.0,0.0,0.0,9e-08
1783583860169371516,3710,1783583860169371516,base_link,0.00133323935917,0.0194422676219,-0.998525023393,-0.0506754216515,1.0,0.0,0.0,0.0,1.0,0.0,0.0,0.0,1.0,-0.00176813721191,0.000378331169486,-0.0363832004368,1.21846967915e-07,0.0,0.0,0.0,1.21846967915e-07,0.0,0.0,0.0,1.21846967915e-07,-0.00980665,-0.3334261,9.81645665,9e-08,0.0,0.0,0.0,9e-08,0.0,0.0,0.0,9e-08
1783583860169371516,3710,1783583860169371516,base_link,0.00133323935917,0.0194422676219,-0.998525023393,-0.0506754216515,1.0,0.0,0.0,0.0,1.0,0.0,0.0,0.0,1.0,-0.00176813721191,0.000378331169486,-0.0363832004368,1.21846967915e-07,0.0,0.0,0.0,1.21846967915e-07,0.0,0.0,0.0,1.21846967915e-07,-0.00980665,-0.3334261,9.81645665,9e-08,0.0,0.0,0.0,9e-08,0.0,0.0,0.0,9e-08
1783583860169371516,3710,1783583860169371516,base_link,0.00133323935917,0.0194422676219,-0.998525023393,-0.0506754216515,1.0,0.0,0.0,0.0,1.0,0.0,0.0,0.0,1.0,-0.00176813721191,0.000378331169486,-0.0363832004368,1.21846967915e-07,0.0,0.0,0.0,1.21846967915e-07,0.0,0.0,0.0,1.21846967915e-07,-0.00980665,-0.3334261,9.81645665,9e-08,0.0,0.0,0.0,9e-08,0.0,0.0,0.0,9e-08
1783583860169371516,3710,1783583860169371516,base_link,0.00133323935917,0.0194422676219,-0.998525023393,-0.0506754216515,1.0,0.0,0.0,0.0,1.0,0.0,0.0,0.0,1.0,-0.00176813721191,0.000378331169486,-0.0363832004368,1.21846967915e-07,0.0,0.0,0.0,1.21846967915e-07,0.0,0.0,0.0,1.21846967915e-07,-0.00980665,-0.3334261,9.81645665,9e-08,0.0,0.0,0.0,9e-08,0.0,0.0,0.0,9e-08
1783583860169371516,3710,1783583860169371516,base_link,0.00133323935917,0.0194422676219,-0.998525023393,-0.0506754216515,1.0,0.0,0.0,0.0,1.0,0.0,0.0,0.0,1.0,-0.00176813721191,0.000378331169486,-0.0363832004368,1.21846967915e-07,0.0,0.0,0.0,1.21846967915e-07,0.0,0.0,0.0,1.21846967915e-07,-0.00980665,-0.3334261,9.81645665,9e-08,0.0,0.0,0.0,9e-08,0.0,0.0,0.0,9e-08
1783583860169371516,3710,1783583860169371516,base_link,0.00133323935917,0.0194422676219,-0.998525023393,-0.0506754216515,1.0,0.0,0.0,0.0,1.0,0.0,0.0,0.0,1.0,-0.00176813721191,0.000378331169486,-0.0363832004368,1.21846967915e-07,0.0,0.0,0.0,1.21846967915e-07,0.0,0.0,0.0,1.21846967915e-07,-0.00980665,-0.3334261,9.81645665,9e-08,0.0,0.0,0.0,9e-08,0.0,0.0,0.0,9e-08
1783583860169371516,3710,1783583860169371516,base_link,0.00133323935917,0.0194422676219,-0.998525023393,-0.0506754216515,1.0,0.0,0.0,0.0,1.0,0.0,0.0,0.0,1.0,-0.00176813721191,0.000378331169486,-0.0363832004368,1.21846967915e-07,0.0,0.0,0.0,1.21846967915e-07,0.0,0.0,0.0,1.21846967915e-07,-0.00980665,-0.3334261,9.81645665,9e-08,0.0,0.0,0.0,9e-08,0.0,0.0,0.0,9e-08
1783583860169371516,3710,1783583860169371516,base_link,0.00133323935917,0.0194422676219,-0.998525023393,-0.0506754216515,1.0,0.0,0.0,0.0,1.0,0.0,0.0,0.0,1.0,-0.00176813721191,0.000378331169486,-0.0363832004368,1.21846967915e-07,0.0,0.0,0.0,1.21846967915e-07,0.0,0.0,0.0,1.21846967915e-07,-0.00980665,-0.3334261,9.81645665,9e-08,0.0,0.0,0.0,9e-08,0.0,0.0,0.0,9e-08
1783583860169371516,3710,1783583860169371516,base_link,0.00133323935917,0.0194422676219,-0.998525023393,-0.0506754216515,1.0,0.0,0.0,0.0,1.0,0.0,0.0,0.0,1.0,-0.00176813721191,0.000378331169486,-0.0363832004368,1.21846967915e-07,0.0,0.0,0.0,1.21846967915e-07,0.0,0.0,0.0,1.21846967915e-07,-0.00980665,-0.3334261,9.81645665,9e-08,0.0,0.0,0.0,9e-08,0.0,0.0,0.0,9e-08
1783583860169371516,3710,1783583860169371516,base_link,0.00133323935917,0.0194422676219,-0.998525023393,-0.0506754216515,1.0,0.0,0.0,0.0,1.0,0.0,0.0,0.0,1.0,-0.00176813721191,0.000378331169486,-0.0363832004368,1.21846967915e-07,0.0,0.0,0.0,1.21846967915e-07,0.0,0.0,0.0,1.21846967915e-07,-0.00980665,-0.3334261,9.81645665,9e-08,0.0,0.0,0.0,9e-08,0.0,0.0,0.0,9e-08
1783583860169371516,3710,1783583860169371516,base_link,0.00133323935917,0.0194422676219,-0.998525023393,-0.0506754216515,1.0,0.0,0.0,0.0,1.0,0.0,0.0,0.0,1.0,-0.00176813721191,0.000378331169486,-0.0363832004368,1.21846967915e-07,0.0,0.0,0.0,1.21846967915e-07,0.0,0.0,0.0,1.21846967915e-07,-0.00980665,-0.3334261,9.81645665,9e-08,0.0,0.0,0.0,9e-08,0.0,0.0,0.0,9e-08
1783583860169371516,3710,1783583860169371516,base_link,0.00133323935917,0.0194422676219,-0.998525023393,-0.0506754216515,1.0,0.0,0.0,0.0,1.0,0.0,0.0,0.0,1.0,-0.00176813721191,0.000378331169486,-0.0363832004368,1.21846967915e-07,0.0,0.0,0.0,1.21846967915e-07,0.0,0.0,0.0,1.21846967915e-07,-0.00980665,-0.3334261,9.81645665,9e-08,0.0,0.0,0.0,9e-08,0.0,0.0,0.0,9e-08
1783583860169371516,3710,1783583860169371516,base_link,0.00133323935917,0.0194422676219,-0.998525023393,-0.0506754216515,1.0,0.0,0.0,0.0,1.0,0.0,0.0,0.0,1.0,-0.00176813721191,0.000378331169486,-0.0363832004368,1.21846967915e-07,0.0,0.0,0.0,1.21846967915e-07,0.0,0.0,0.0,1.21846967915e-07,-0.00980665,-0.3334261,9.81645665,9e-08,0.0,0.0,0.0,9e-08,0.0,0.0,0.0,9e-08
1783583860169371516,3710,1783583860169371516,base_link,0.00133323935917,0.0194422676219,-0.998525023393,-0.0506754216515,1.0,0.0,0.0,0.0,1.0,0.0,0.0,0.0,1.0,-0.00176813721191,0.000378331169486,-0.0363832004368,1.21846967915e-07,0.0,0.0,0.0,1.21846967915e-07,0.0,0.0,0.0,1.21846967915e-07,-0.00980665,-0.3334261,9.81645665,9e-08,0.0,0.0,0.0,9e-08,0.0,0.0,0.0,9e-08
1783583860169371516,3710,1783583860169371516,base_link,0.00133323935917,0.0194422676219,-0.998525023393,-0.0506754216515,1.0,0.0,0.0,0.0,1.0,0.0,0.0,0.0,1.0,-0.00176813721191,0.000378331169486,-0.0363832004368,1.21846967915e-07,0.0,0.0,0.0,1.21846967915e-07,0.0,0.0,0.0,1.21846967915e-07,-0.00980665,-0.3334261,9.81645665,9e-08,0.0,0.0,0.0,9e-08,0.0,0.0,0.0,9e-08
1783583860169371516,3710,1783583860169371516,base_link,0.00133323935917,0.0194422676219,-0.998525023393,-0.0506754216515,1.0,0.0,0.0,0.0,1.0,0.0,0.0,0.0,1.0,-0.00176813721191,0.000378331169486,-0.0363832004368,1.21846967915e-07,0.0,0.0,0.0,1.21846967915e-07,0.0,0.0,0.0,1.21846967915e-07,-0.00980665,-0.3334261,9.81645665,9e-08,0.0,0.0,0.0,9e-08,0.0,0.0,0.0,9e-08
1783583860169371516,3710,1783583860169371516,base_link,0.00133323935917,0.0194422676219,-0.998525023393,-0.0506754216515,1.0,0.0,0.0,0.0,1.0,0.0,0.0,0.0,1.0,-0.00176813721191,0.000378331169486,-0.0363832004368,1.21846967915e-07,0.0,0.0,0.0,1.21846967915e-07,0.0,0.0,0.0,1.21846967915e-07,-0.00980665,-0.3334261,9.81645665,9e-08,0.0,0.0,0.0,9e-08,0.0,0.0,0.0,9e-08
1783583860169371516,3710,1783583860169371516,base_link,0.00133323935917,0.0194422676219,-0.998525023393,-0.0506754216515,1.0,0.0,0.0,0.0,1.0,0.0,0.0,0.0,1.0,-0.00176813721191,0.000378331169486,-0.0363832004368,1.21846967915e-07,0.0,0.0,0.0,1.21846967915e-07,0.0,0.0,0.0,1.21846967915e-07,-0.00980665,-0.3334261,9.81645665,9e-08,0.0,0.0,0.0,9e-08,0.0,0.0,0.0,9e-08
1783583860169371516,3710,1783583860169371516,base_link,0.00133323935917,0.0194422676219,-0.998525023393,-0.0506754216515,1.0,0.0,0.0,0.0,1.0,0.0,0.0,0.0,1.0,-0.00176813721191,0.000378331169486,-0.0363832004368,1.21846967915e-07,0.0,0.0,0.0,1.21846967915e-07,0.0,0.0,0.0,1.21846967915e-07,-0.00980665,-0.3334261,9.81645665,9e-08,0.0,0.0,0.0,9e-08,0.0,0.0,0.0,9e-08
1783583860169371516,3710,1783583860169371516,base_link,0.00133323935917,0.0194422676219,-0.998525023393,-0.0506754216515,1.0,0.0,0.0,0.0,1.0,0.0,0.0,0.0,1.0,-0.00176813721191,0.000378331169486,-0.0363832004368,1.21846967915e-07,0.0,0.0,0.0,1.21846967915e-07,0.0,0.0,0.0,1.21846967915e-07,-0.00980665,-0.3334261,9.81645665,9e-08,0.0,0.0,0.0,9e-08,0.0,0.0,0.0,9e-08
1783583860169371516,3710,1783583860169371516,base_link,0.00133323935917,0.0194422676219,-0.998525023393,-0.0506754216515,1.0,0.0,0.0,0.0,1.0,0.0,0.0,0.0,1.0,-0.00176813721191,0.000378331169486,-0.0363832004368,1.21846967915e-07,0.0,0.0,0.0,1.21846967915e-07,0.0,0.0,0.0,1.21846967915e-07,-0.00980665,-0.3334261,9.81645665,9e-08,0.0,0.0,0.0,9e-08,0.0,0.0,0.0,9e-08
1783583860169371516,3710,1783583860169371516,base_link,0.00133323935917,0.0194422676219,-0.998525023393,-0.0506754216515,1.0,0.0,0.0,0.0,1.0,0.0,0.0,0.0,1.0,-0.00176813721191,0.000378331169486,-0.0363832004368,1.21846967915e-07,0.0,0.0,0.0,1.21846967915e-07,0.0,0.0,0.0,1.21846967915e-07,-0.00980665,-0.3334261,9.81645665,9e-08,0.0,0.0,0.0,9e-08,0.0,0.0,0.0,9e-08
1783583860429374588,3711,1783583860429374588,base_link,0.00192476679754,0.0183576905525,-0.998299676848,-0.0552905568308,1.0,0.0,0.0,0.0,1.0,0.0,0.0,0.0,1.0,0.00437309779227,0.00843107886612,-0.0278481002897,1.21846967915e-07,0.0,0.0,0.0,1.21846967915e-07,0.0,0.0,0.0,1.21846967915e-07,-0.00980665,-0.3334261,9.81645665,9e-08,0.0,0.0,0.0,9e-08,0.0,0.0,0.0,9e-08
1783583860429374588,3711,1783583860429374588,base_link,0.00192476679754,0.0183576905525,-0.998299676848,-0.0552905568308,1.0,0.0,0.0,0.0,1.0,0.0,0.0,0.0,1.0,0.00437309779227,0.00843107886612,-0.0278481002897,1.21846967915e-07,0.0,0.0,0.0,1.21846967915e-07,0.0,0.0,0.0,1.21846967915e-07,-0.00980665,-0.3334261,9.81645665,9e-08,0.0,0.0,0.0,9e-08,0.0,0.0,0.0,9e-08
1783583860429374588,3711,1783583860429374588,base_link,0.00192476679754,0.0183576905525,-0.998299676848,-0.0552905568308,1.0,0.0,0.0,0.0,1.0,0.0,0.0,0.0,1.0,0.00437309779227,0.00843107886612,-0.0278481002897,1.21846967915e-07,0.0,0.0,0.0,1.21846967915e-07,0.0,0.0,0.0,1.21846967915e-07,-0.00980665,-0.3334261,9.81645665,9e-08,0.0,0.0,0.0,9e-08,0.0,0.0,0.0,9e-08
1783583860429374588,3711,1783583860429374588,base_link,0.00192476679754,0.0183576905525,-0.998299676848,-0.0552905568308,1.0,0.0,0.0,0.0,1.0,0.0,0.0,0.0,1.0,0.00437309779227,0.00843107886612,-0.0278481002897,1.21846967915e-07,0.0,0.0,0.0,1.21846967915e-07,0.0,0.0,0.0,1.21846967915e-07,-0.00980665,-0.3334261,9.81645665,9e-08,0.0,0.0,0.0,9e-08,0.0,0.0,0.0,9e-08
1783583860429374588,3711,1783583860429374588,base_link,0.00192476679754,0.0183576905525,-0.998299676848,-0.0552905568308,1.0,0.0,0.0,0.0,1.0,0.0,0.0,0.0,1.0,0.00437309779227,0.00843107886612,-0.0278481002897,1.21846967915e-07,0.0,0.0,0.0,1.21846967915e-07,0.0,0.0,0.0,1.21846967915e-07,-0.00980665,-0.3334261,9.81645665,9e-08,0.0,0.0,0.0,9e-08,0.0,0.0,0.0,9e-08
1783583860429374588,3711,1783583860429374588,base_link,0.00192476679754,0.0183576905525,-0.998299676848,-0.0552905568308,1.0,0.0,0.0,0.0,1.0,0.0,0.0,0.0,1.0,0.00437309779227,0.00843107886612,-0.0278481002897,1.21846967915e-07,0.0,0.0,0.0,1.21846967915e-07,0.0,0.0,0.0,1.21846967915e-07,-0.00980665,-0.3334261,9.81645665,9e-08,0.0,0.0,0.0,9e-08,0.0,0.0,0.0,9e-08
1783583860429374588,3711,1783583860429374588,base_link,0.00192476679754,0.0183576905525,-0.998299676848,-0.0552905568308,1.0,0.0,0.0,0.0,1.0,0.0,0.0,0.0,1.0,0.00437309779227,0.00843107886612,-0.0278481002897,1.21846967915e-07,0.0,0.0,0.0,1.21846967915e-07,0.0,0.0,0.0,1.21846967915e-07,-0.00980665,-0.3334261,9.81645665,9e-08,0.0,0.0,0.0,9e-08,0.0,0.0,0.0,9e-08
1783583860429374588,3711,1783583860429374588,base_link,0.00192476679754,0.0183576905525,-0.998299676848,-0.0552905568308,1.0,0.0,0.0,0.0,1.0,0.0,0.0,0.0,1.0,0.00437309779227,0.00843107886612,-0.0278481002897,1.21846967915e-07,0.0,0.0,0.0,1.21846967915e-07,0.0,0.0,0.0,1.21846967915e-07,-0.00980665,-0.3334261,9.81645665,9e-08,0.0,0.0,0.0,9e-08,0.0,0.0,0.0,9e-08
1783583860429374588,3711,1783583860429374588,base_link,0.00192476679754,0.0183576905525,-0.998299676848,-0.0552905568308,1.0,0.0,0.0,0.0,1.0,0.0,0.0,0.0,1.0,0.00437309779227,0.00843107886612,-0.0278481002897,1.21846967915e-07,0.0,0.0,0.0,1.21846967915e-07,0.0,0.0,0.0,1.21846967915e-07,-0.00980665,-0.3334261,9.81645665,9e-08,0.0,0.0,0.0,9e-08,0.0,0.0,0.0,9e-08
1783583860429374588,3711,1783583860429374588,base_link,0.00192476679754,0.0183576905525,-0.998299676848,-0.0552905568308,1.0,0.0,0.0,0.0,1.0,0.0,0.0,0.0,1.0,0.00437309779227,0.00843107886612,-0.0278481002897,1.21846967915e-07,0.0,0.0,0.0,1.21846967915e-07,0.0,0.0,0.0,1.21846967915e-07,-0.00980665,-0.3334261,9.81645665,9e-08,0.0,0.0,0.0,9e-08,0.0,0.0,0.0,9e-08
1783583860429374588,3711,1783583860429374588,base_link,0.00192476679754,0.0183576905525,-0.998299676848,-0.0552905568308,1.0,0.0,0.0,0.0,1.0,0.0,0.0,0.0,1.0,0.00437309779227,0.00843107886612,-0.0278481002897,1.21846967915e-07,0.0,0.0,0.0,1.21846967915e-07,0.0,0.0,0.0,1.21846967915e-07,-0.00980665,-0.3334261,9.81645665,9e-08,0.0,0.0,0.0,9e-08,0.0,0.0,0.0,9e-08
1783583860429374588,3711,1783583860429374588,base_link,0.00192476679754,0.0183576905525,-0.998299676848,-0.0552905568308,1.0,0.0,0.0,0.0,1.0,0.0,0.0,0.0,1.0,0.00437309779227,0.00843107886612,-0.0278481002897,1.21846967915e-07,0.0,0.0,0.0,1.21846967915e-07,0.0,0.0,0.0,1.21846967915e-07,-0.00980665,-0.3334261,9.81645665,9e-08,0.0,0.0,0.0,9e-08,0.0,0.0,0.0,9e-08
1783583860429374588,3711,1783583860429374588,base_link,0.00192476679754,0.0183576905525,-0.998299676848,-0.0552905568308,1.0,0.0,0.0,0.0,1.0,0.0,0.0,0.0,1.0,0.00437309779227,0.00843107886612,-0.0278481002897,1.21846967915e-07,0.0,0.0,0.0,1.21846967915e-07,0.0,0.0,0.0,1.21846967915e-07,-0.00980665,-0.3334261,9.81645665,9e-08,0.0,0.0,0.0,9e-08,0.0,0.0,0.0,9e-08
1783583860429374588,3711,1783583860429374588,base_link,0.00192476679754,0.0183576905525,-0.998299676848,-0.0552905568308,1.0,0.0,0.0,0.0,1.0,0.0,0.0,0.0,1.0,0.00437309779227,0.00843107886612,-0.0278481002897,1.21846967915e-07,0.0,0.0,0.0,1.21846967915e-07,0.0,0.0,0.0,1.21846967915e-07,-0.00980665,-0.3334261,9.81645665,9e-08,0.0,0.0,0.0,9e-08,0.0,0.0,0.0,9e-08
1783583860429374588,3711,1783583860429374588,base_link,0.00192476679754,0.0183576905525,-0.998299676848,-0.0552905568308,1.0,0.0,0.0,0.0,1.0,0.0,0.0,0.0,1.0,0.00437309779227,0.00843107886612,-0.0278481002897,1.21846967915e-07,0.0,0.0,0.0,1.21846967915e-07,0.0,0.0,0.0,1.21846967915e-07,-0.00980665,-0.3334261,9.81645665,9e-08,0.0,0.0,0.0,9e-08,0.0,0.0,0.0,9e-08
1783583860429374588,3711,1783583860429374588,base_link,0.00192476679754,0.0183576905525,-0.998299676848,-0.0552905568308,1.0,0.0,0.0,0.0,1.0,0.0,0.0,0.0,1.0,0.00437309779227,0.00843107886612,-0.0278481002897,1.21846967915e-07,0.0,0.0,0.0,1.21846967915e-07,0.0,0.0,0.0,1.21846967915e-07,-0.00980665,-0.3334261,9.81645665,9e-08,0.0,0.0,0.0,9e-08,0.0,0.0,0.0,9e-08
1783583860429374588,3711,1783583860429374588,base_link,0.00192476679754,0.0183576905525,-0.998299676848,-0.0552905568308,1.0,0.0,0.0,0.0,1.0,0.0,0.0,0.0,1.0,0.00437309779227,0.00843107886612,-0.0278481002897,1.21846967915e-07,0.0,0.0,0.0,1.21846967915e-07,0.0,0.0,0.0,1.21846967915e-07,-0.00980665,-0.3334261,9.81645665,9e-08,0.0,0.0,0.0,9e-08,0.0,0.0,0.0,9e-08
1783583860429374588,3711,1783583860429374588,base_link,0.00192476679754,0.0183576905525,-0.998299676848,-0.0552905568308,1.0,0.0,0.0,0.0,1.0,0.0,0.0,0.0,1.0,0.00437309779227,0.00843107886612,-0.0278481002897,1.21846967915e-07,0.0,0.0,0.0,1.21846967915e-07,0.0,0.0,0.0,1.21846967915e-07,-0.00980665,-0.3334261,9.81645665,9e-08,0.0,0.0,0.0,9e-08,0.0,0.0,0.0,9e-08
1783583860429374588,3711,1783583860429374588,base_link,0.00192476679754,0.0183576905525,-0.998299676848,-0.0552905568308,1.0,0.0,0.0,0.0,1.0,0.0,0.0,0.0,1.0,0.00437309779227,0.00843107886612,-0.0278481002897,1.21846967915e-07,0.0,0.0,0.0,1.21846967915e-07,0.0,0.0,0.0,1.21846967915e-07,-0.00980665,-0.3334261,9.81645665,9e-08,0.0,0.0,0.0,9e-08,0.0,0.0,0.0,9e-08
1783583860429374588,3711,1783583860429374588,base_link,0.00192476679754,0.0183576905525,-0.998299676848,-0.0552905568308,1.0,0.0,0.0,0.0,1.0,0.0,0.0,0.0,1.0,0.00437309779227,0.00843107886612,-0.0278481002897,1.21846967915e-07,0.0,0.0,0.0,1.21846967915e-07,0.0,0.0,0.0,1.21846967915e-07,-0.00980665,-0.3334261,9.81645665,9e-08,0.0,0.0,0.0,9e-08,0.0,0.0,0.0,9e-08
1783583860429374588,3711,1783583860429374588,base_link,0.00192476679754,0.0183576905525,-0.998299676848,-0.0552905568308,1.0,0.0,0.0,0.0,1.0,0.0,0.0,0.0,1.0,0.00437309779227,0.00843107886612,-0.0278481002897,1.21846967915e-07,0.0,0.0,0.0,1.21846967915e-07,0.0,0.0,0.0,1.21846967915e-07,-0.00980665,-0.3334261,9.81645665,9e-08,0.0,0.0,0.0,9e-08,0.0,0.0,0.0,9e-08
1783583860429374588,3711,1783583860429374588,base_link,0.00192476679754,0.0183576905525,-0.998299676848,-0.0552905568308,1.0,0.0,0.0,0.0,1.0,0.0,0.0,0.0,1.0,0.00437309779227,0.00843107886612,-0.0278481002897,1.21846967915e-07,0.0,0.0,0.0,1.21846967915e-07,0.0,0.0,0.0,1.21846967915e-07,-0.00980665,-0.3334261,9.81645665,9e-08,0.0,0.0,0.0,9e-08,0.0,0.0,0.0,9e-08
1783583860429374588,3711,1783583860429374588,base_link,0.00192476679754,0.0183576905525,-0.998299676848,-0.0552905568308,1.0,0.0,0.0,0.0,1.0,0.0,0.0,0.0,1.0,0.00437309779227,0.00843107886612,-0.0278481002897,1.21846967915e-07,0.0,0.0,0.0,1.21846967915e-07,0.0,0.0,0.0,1.21846967915e-07,-0.00980665,-0.3334261,9.81645665,9e-08,0.0,0.0,0.0,9e-08,0.0,0.0,0.0,9e-08
1783583860429374588,3711,1783583860429374588,base_link,0.00192476679754,0.0183576905525,-0.998299676848,-0.0552905568308,1.0,0.0,0.0,0.0,1.0,0.0,0.0,0.0,1.0,0.00437309779227,0.00843107886612,-0.0278481002897,1.21846967915e-07,0.0,0.0,0.0,1.21846967915e-07,0.0,0.0,0.0,1.21846967915e-07,-0.00980665,-0.3334261,9.81645665,9e-08,0.0,0.0,0.0,9e-08,0.0,0.0,0.0,9e-08
1783583860669292054,3712,1783583860669292054,base_link,0.00211969116079,0.018694741254,-0.998067737567,-0.0592182808437,1.0,0.0,0.0,0.0,1.0,0.0,0.0,0.0,1.0,-0.0061236792244,0.000520648434758,-0.0301646925509,1.21846967915e-07,0.0,0.0,0.0,1.21846967915e-07,0.0,0.0,0.0,1.21846967915e-07,-0.00980665,-0.34323275,9.8262633,9e-08,0.0,0.0,0.0,9e-08,0.0,0.0,0.0,9e-08
1783583860669292054,3712,1783583860669292054,base_link,0.00211969116079,0.018694741254,-0.998067737567,-0.0592182808437,1.0,0.0,0.0,0.0,1.0,0.0,0.0,0.0,1.0,-0.0061236792244,0.000520648434758,-0.0301646925509,1.21846967915e-07,0.0,0.0,0.0,1.21846967915e-07,0.0,0.0,0.0,1.21846967915e-07,-0.00980665,-0.34323275,9.8262633,9e-08,0.0,0.0,0.0,9e-08,0.0,0.0,0.0,9e-08
1783583860669292054,3712,1783583860669292054,base_link,0.00211969116079,0.018694741254,-0.998067737567,-0.0592182808437,1.0,0.0,0.0,0.0,1.0,0.0,0.0,0.0,1.0,-0.0061236792244,0.000520648434758,-0.0301646925509,1.21846967915e-07,0.0,0.0,0.0,1.21846967915e-07,0.0,0.0,0.0,1.21846967915e-07,-0.00980665,-0.34323275,9.8262633,9e-08,0.0,0.0,0.0,9e-08,0.0,0.0,0.0,9e-08
1783583860669292054,3712,1783583860669292054,base_link,0.00211969116079,0.018694741254,-0.998067737567,-0.0592182808437,1.0,0.0,0.0,0.0,1.0,0.0,0.0,0.0,1.0,-0.0061236792244,0.000520648434758,-0.0301646925509,1.21846967915e-07,0.0,0.0,0.0,1.21846967915e-07,0.0,0.0,0.0,1.21846967915e-07,-0.00980665,-0.34323275,9.8262633,9e-08,0.0,0.0,0.0,9e-08,0.0,0.0,0.0,9e-08
1783583860669292054,3712,1783583860669292054,base_link,0.00211969116079,0.018694741254,-0.998067737567,-0.0592182808437,1.0,0.0,0.0,0.0,1.0,0.0,0.0,0.0,1.0,-0.0061236792244,0.000520648434758,-0.0301646925509,1.21846967915e-07,0.0,0.0,0.0,1.21846967915e-07,0.0,0.0,0.0,1.21846967915e-07,-0.00980665,-0.34323275,9.8262633,9e-08,0.0,0.0,0.0,9e-08,0.0,0.0,0.0,9e-08
1783583860669292054,3712,1783583860669292054,base_link,0.00211969116079,0.018694741254,-0.998067737567,-0.0592182808437,1.0,0.0,0.0,0.0,1.0,0.0,0.0,0.0,1.0,-0.0061236792244,0.000520648434758,-0.0301646925509,1.21846967915e-07,0.0,0.0,0.0,1.21846967915e-07,0.0,0.0,0.0,1.21846967915e-07,-0.00980665,-0.34323275,9.8262633,9e-08,0.0,0.0,0.0,9e-08,0.0,0.0,0.0,9e-08
1783583860669292054,3712,1783583860669292054,base_link,0.00211969116079,0.018694741254,-0.998067737567,-0.0592182808437,1.0,0.0,0.0,0.0,1.0,0.0,0.0,0.0,1.0,-0.0061236792244,0.000520648434758,-0.0301646925509,1.21846967915e-07,0.0,0.0,0.0,1.21846967915e-07,0.0,0.0,0.0,1.21846967915e-07,-0.00980665,-0.34323275,9.8262633,9e-08,0.0,0.0,0.0,9e-08,0.0,0.0,0.0,9e-08
1783583860669292054,3712,1783583860669292054,base_link,0.00211969116079,0.018694741254,-0.998067737567,-0.0592182808437,1.0,0.0,0.0,0.0,1.0,0.0,0.0,0.0,1.0,-0.0061236792244,0.000520648434758,-0.0301646925509,1.21846967915e-07,0.0,0.0,0.0,1.21846967915e-07,0.0,0.0,0.0,1.21846967915e-07,-0.00980665,-0.34323275,9.8262633,9e-08,0.0,0.0,0.0,9e-08,0.0,0.0,0.0,9e-08
1783583860669292054,3712,1783583860669292054,base_link,0.00211969116079,0.018694741254,-0.998067737567,-0.0592182808437,1.0,0.0,0.0,0.0,1.0,0.0,0.0,0.0,1.0,-0.0061236792244,0.000520648434758,-0.0301646925509,1.21846967915e-07,0.0,0.0,0.0,1.21846967915e-07,0.0,0.0,0.0,1.21846967915e-07,-0.00980665,-0.34323275,9.8262633,9e-08,0.0,0.0,0.0,9e-08,0.0,0.0,0.0,9e-08
1783583860669292054,3712,1783583860669292054,base_link,0.00211969116079,0.018694741254,-0.998067737567,-0.0592182808437,1.0,0.0,0.0,0.0,1.0,0.0,0.0,0.0,1.0,-0.0061236792244,0.000520648434758,-0.0301646925509,1.21846967915e-07,0.0,0.0,0.0,1.21846967915e-07,0.0,0.0,0.0,1.21846967915e-07,-0.00980665,-0.34323275,9.8262633,9e-08,0.0,0.0,0.0,9e-08,0.0,0.0,0.0,9e-08
1783583860669292054,3712,1783583860669292054,base_link,0.00211969116079,0.018694741254,-0.998067737567,-0.0592182808437,1.0,0.0,0.0,0.0,1.0,0.0,0.0,0.0,1.0,-0.0061236792244,0.000520648434758,-0.0301646925509,1.21846967915e-07,0.0,0.0,0.0,1.21846967915e-07,0.0,0.0,0.0,1.21846967915e-07,-0.00980665,-0.34323275,9.8262633,9e-08,0.0,0.0,0.0,9e-08,0.0,0.0,0.0,9e-08
1783583860669292054,3712,1783583860669292054,base_link,0.00211969116079,0.018694741254,-0.998067737567,-0.0592182808437,1.0,0.0,0.0,0.0,1.0,0.0,0.0,0.0,1.0,-0.0061236792244,0.000520648434758,-0.0301646925509,1.21846967915e-07,0.0,0.0,0.0,1.21846967915e-07,0.0,0.0,0.0,1.21846967915e-07,-0.00980665,-0.34323275,9.8262633,9e-08,0.0,0.0,0.0,9e-08,0.0,0.0,0.0,9e-08
1783583860669292054,3712,1783583860669292054,base_link,0.00211969116079,0.018694741254,-0.998067737567,-0.0592182808437,1.0,0.0,0.0,0.0,1.0,0.0,0.0,0.0,1.0,-0.0061236792244,0.000520648434758,-0.0301646925509,1.21846967915e-07,0.0,0.0,0.0,1.21846967915e-07,0.0,0.0,0.0,1.21846967915e-07,-0.00980665,-0.34323275,9.8262633,9e-08,0.0,0.0,0.0,9e-08,0.0,0.0,0.0,9e-08
1783583860669292054,3712,1783583860669292054,base_link,0.00211969116079,0.018694741254,-0.998067737567,-0.0592182808437,1.0,0.0,0.0,0.0,1.0,0.0,0.0,0.0,1.0,-0.0061236792244,0.000520648434758,-0.0301646925509,1.21846967915e-07,0.0,0.0,0.0,1.21846967915e-07,0.0,0.0,0.0,1.21846967915e-07,-0.00980665,-0.34323275,9.8262633,9e-08,0.0,0.0,0.0,9e-08,0.0,0.0,0.0,9e-08
1783583860669292054,3712,1783583860669292054,base_link,0.00211969116079,0.018694741254,-0.998067737567,-0.0592182808437,1.0,0.0,0.0,0.0,1.0,0.0,0.0,0.0,1.0,-0.0061236792244,0.000520648434758,-0.0301646925509,1.21846967915e-07,0.0,0.0,0.0,1.21846967915e-07,0.0,0.0,0.0,1.21846967915e-07,-0.00980665,-0.34323275,9.8262633,9e-08,0.0,0.0,0.0,9e-08,0.0,0.0,0.0,9e-08
1783583860669292054,3712,1783583860669292054,base_link,0.00211969116079,0.018694741254,-0.998067737567,-0.0592182808437,1.0,0.0,0.0,0.0,1.0,0.0,0.0,0.0,1.0,-0.0061236792244,0.000520648434758,-0.0301646925509,1.21846967915e-07,0.0,0.0,0.0,1.21846967915e-07,0.0,0.0,0.0,1.21846967915e-07,-0.00980665,-0.34323275,9.8262633,9e-08,0.0,0.0,0.0,9e-08,0.0,0.0,0.0,9e-08
1783583860669292054,3712,1783583860669292054,base_link,0.00211969116079,0.018694741254,-0.998067737567,-0.0592182808437,1.0,0.0,0.0,0.0,1.0,0.0,0.0,0.0,1.0,-0.0061236792244,0.000520648434758,-0.0301646925509,1.21846967915e-07,0.0,0.0,0.0,1.21846967915e-07,0.0,0.0,0.0,1.21846967915e-07,-0.00980665,-0.34323275,9.8262633,9e-08,0.0,0.0,0.0,9e-08,0.0,0.0,0.0,9e-08
1783583860669292054,3712,1783583860669292054,base_link,0.00211969116079,0.018694741254,-0.998067737567,-0.0592182808437,1.0,0.0,0.0,0.0,1.0,0.0,0.0,0.0,1.0,-0.0061236792244,0.000520648434758,-0.0301646925509,1.21846967915e-07,0.0,0.0,0.0,1.21846967915e-07,0.0,0.0,0.0,1.21846967915e-07,-0.00980665,-0.34323275,9.8262633,9e-08,0.0,0.0,0.0,9e-08,0.0,0.0,0.0,9e-08
1783583860669292054,3712,1783583860669292054,base_link,0.00211969116079,0.018694741254,-0.998067737567,-0.0592182808437,1.0,0.0,0.0,0.0,1.0,0.0,0.0,0.0,1.0,-0.0061236792244,0.000520648434758,-0.0301646925509,1.21846967915e-07,0.0,0.0,0.0,1.21846967915e-07,0.0,0.0,0.0,1.21846967915e-07,-0.00980665,-0.34323275,9.8262633,9e-08,0.0,0.0,0.0,9e-08,0.0,0.0,0.0,9e-08
1783583860669292054,3712,1783583860669292054,base_link,0.00211969116079,0.018694741254,-0.998067737567,-0.0592182808437,1.0,0.0,0.0,0.0,1.0,0.0,0.0,0.0,1.0,-0.0061236792244,0.000520648434758,-0.0301646925509,1.21846967915e-07,0.0,0.0,0.0,1.21846967915e-07,0.0,0.0,0.0,1.21846967915e-07,-0.00980665,-0.34323275,9.8262633,9e-08,0.0,0.0,0.0,9e-08,0.0,0.0,0.0,9e-08
1783583860669292054,3712,1783583860669292054,base_link,0.00211969116079,0.018694741254,-0.998067737567,-0.0592182808437,1.0,0.0,0.0,0.0,1.0,0.0,0.0,0.0,1.0,-0.0061236792244,0.000520648434758,-0.0301646925509,1.21846967915e-07,0.0,0.0,0.0,1.21846967915e-07,0.0,0.0,0.0,1.21846967915e-07,-0.00980665,-0.34323275,9.8262633,9e-08,0.0,0.0,0.0,9e-08,0.0,0.0,0.0,9e-08
1783583860669292054,3712,1783583860669292054,base_link,0.00211969116079,0.018694741254,-0.998067737567,-0.0592182808437,1.0,0.0,0.0,0.0,1.0,0.0,0.0,0.0,1.0,-0.0061236792244,0.000520648434758,-0.0301646925509,1.21846967915e-07,0.0,0.0,0.0,1.21846967915e-07,0.0,0.0,0.0,1.21846967915e-07,-0.00980665,-0.34323275,9.8262633,9e-08,0.0,0.0,0.0,9e-08,0.0,0.0,0.0,9e-08
1783583860669292054,3712,1783583860669292054,base_link,0.00211969116079,0.018694741254,-0.998067737567,-0.0592182808437,1.0,0.0,0.0,0.0,1.0,0.0,0.0,0.0,1.0,-0.0061236792244,0.000520648434758,-0.0301646925509,1.21846967915e-07,0.0,0.0,0.0,1.21846967915e-07,0.0,0.0,0.0,1.21846967915e-07,-0.00980665,-0.34323275,9.8262633,9e-08,0.0,0.0,0.0,9e-08,0.0,0.0,0.0,9e-08
1783583860669292054,3712,1783583860669292054,base_link,0.00211969116079,0.018694741254,-0.998067737567,-0.0592182808437,1.0,0.0,0.0,0.0,1.0,0.0,0.0,0.0,1.0,-0.0061236792244,0.000520648434758,-0.0301646925509,1.21846967915e-07,0.0,0.0,0.0,1.21846967915e-07,0.0,0.0,0.0,1.21846967915e-07,-0.00980665,-0.34323275,9.8262633,9e-08,0.0,0.0,0.0,9e-08,0.0,0.0,0.0,9e-08
1783583860669292054,3712,1783583860669292054,base_link,0.00211969116079,0.018694741254,-0.998067737567,-0.0592182808437,1.0,0.0,0.0,0.0,1.0,0.0,0.0,0.0,1.0,-0.0061236792244,0.000520648434758,-0.0301646925509,1.21846967915e-07,0.0,0.0,0.0,1.21846967915e-07,0.0,0.0,0.0,1.21846967915e-07,-0.00980665,-0.34323275,9.8262633,9e-08,0.0,0.0,0.0,9e-08,0.0,0.0,0.0,9e-08
1783583860669292054,3712,1783583860669292054,base_link,0.00211969116079,0.018694741254,-0.998067737567,-0.0592182808437,1.0,0.0,0.0,0.0,1.0,0.0,0.0,0.0,1.0,-0.0061236792244,0.000520648434758,-0.0301646925509,1.21846967915e-07,0.0,0.0,0.0,1.21846967915e-07,0.0,0.0,0.0,1.21846967915e-07,-0.00980665,-0.34323275,9.8262633,9e-08,0.0,0.0,0.0,9e-08,0.0,0.0,0.0,9e-08
1783583860928294614,3713,1783583860928294614,base_link,0.00190130494018,0.0188745976701,-0.997771988717,-0.0639624353303,1.0,0.0,0.0,0.0,1.0,0.0,0.0,0.0,1.0,-0.00376116321422,-0.00155530869961,-0.0290320776403,1.21846967915e-07,0.0,0.0,0.0,1.21846967915e-07,0.0,0.0,0.0,1.21846967915e-07,-0.00980665,-0.34323275,9.8262633,9e-08,0.0,0.0,0.0,9e-08,0.0,0.0,0.0,9e-08
1783583860928294614,3713,1783583860928294614,base_link,0.00190130494018,0.0188745976701,-0.997771988717,-0.0639624353303,1.0,0.0,0.0,0.0,1.0,0.0,0.0,0.0,1.0,-0.00376116321422,-0.00155530869961,-0.0290320776403,1.21846967915e-07,0.0,0.0,0.0,1.21846967915e-07,0.0,0.0,0.0,1.21846967915e-07,-0.00980665,-0.34323275,9.8262633,9e-08,0.0,0.0,0.0,9e-08,0.0,0.0,0.0,9e-08
1783583860928294614,3713,1783583860928294614,base_link,0.00190130494018,0.0188745976701,-0.997771988717,-0.0639624353303,1.0,0.0,0.0,0.0,1.0,0.0,0.0,0.0,1.0,-0.00376116321422,-0.00155530869961,-0.0290320776403,1.21846967915e-07,0.0,0.0,0.0,1.21846967915e-07,0.0,0.0,0.0,1.21846967915e-07,-0.00980665,-0.34323275,9.8262633,9e-08,0.0,0.0,0.0,9e-08,0.0,0.0,0.0,9e-08
1783583860928294614,3713,1783583860928294614,base_link,0.00190130494018,0.0188745976701,-0.997771988717,-0.0639624353303,1.0,0.0,0.0,0.0,1.0,0.0,0.0,0.0,1.0,-0.00376116321422,-0.00155530869961,-0.0290320776403,1.21846967915e-07,0.0,0.0,0.0,1.21846967915e-07,0.0,0.0,0.0,1.21846967915e-07,-0.00980665,-0.34323275,9.8262633,9e-08,0.0,0.0,0.0,9e-08,0.0,0.0,0.0,9e-08
1783583860928294614,3713,1783583860928294614,base_link,0.00190130494018,0.0188745976701,-0.997771988717,-0.0639624353303,1.0,0.0,0.0,0.0,1.0,0.0,0.0,0.0,1.0,-0.00376116321422,-0.00155530869961,-0.0290320776403,1.21846967915e-07,0.0,0.0,0.0,1.21846967915e-07,0.0,0.0,0.0,1.21846967915e-07,-0.00980665,-0.34323275,9.8262633,9e-08,0.0,0.0,0.0,9e-08,0.0,0.0,0.0,9e-08
1783583860928294614,3713,1783583860928294614,base_link,0.00190130494018,0.0188745976701,-0.997771988717,-0.0639624353303,1.0,0.0,0.0,0.0,1.0,0.0,0.0,0.0,1.0,-0.00376116321422,-0.00155530869961,-0.0290320776403,1.21846967915e-07,0.0,0.0,0.0,1.21846967915e-07,0.0,0.0,0.0,1.21846967915e-07,-0.00980665,-0.34323275,9.8262633,9e-08,0.0,0.0,0.0,9e-08,0.0,0.0,0.0,9e-08
1783583860928294614,3713,1783583860928294614,base_link,0.00190130494018,0.0188745976701,-0.997771988717,-0.0639624353303,1.0,0.0,0.0,0.0,1.0,0.0,0.0,0.0,1.0,-0.00376116321422,-0.00155530869961,-0.0290320776403,1.21846967915e-07,0.0,0.0,0.0,1.21846967915e-07,0.0,0.0,0.0,1.21846967915e-07,-0.00980665,-0.34323275,9.8262633,9e-08,0.0,0.0,0.0,9e-08,0.0,0.0,0.0,9e-08
1783583860928294614,3713,1783583860928294614,base_link,0.00190130494018,0.0188745976701,-0.997771988717,-0.0639624353303,1.0,0.0,0.0,0.0,1.0,0.0,0.0,0.0,1.0,-0.00376116321422,-0.00155530869961,-0.0290320776403,1.21846967915e-07,0.0,0.0,0.0,1.21846967915e-07,0.0,0.0,0.0,1.21846967915e-07,-0.00980665,-0.34323275,9.8262633,9e-08,0.0,0.0,0.0,9e-08,0.0,0.0,0.0,9e-08
1783583860928294614,3713,1783583860928294614,base_link,0.00190130494018,0.0188745976701,-0.997771988717,-0.0639624353303,1.0,0.0,0.0,0.0,1.0,0.0,0.0,0.0,1.0,-0.00376116321422,-0.00155530869961,-0.0290320776403,1.21846967915e-07,0.0,0.0,0.0,1.21846967915e-07,0.0,0.0,0.0,1.21846967915e-07,-0.00980665,-0.34323275,9.8262633,9e-08,0.0,0.0,0.0,9e-08,0.0,0.0,0.0,9e-08
1783583860928294614,3713,1783583860928294614,base_link,0.00190130494018,0.0188745976701,-0.997771988717,-0.0639624353303,1.0,0.0,0.0,0.0,1.0,0.0,0.0,0.0,1.0,-0.00376116321422,-0.00155530869961,-0.0290320776403,1.21846967915e-07,0.0,0.0,0.0,1.21846967915e-07,0.0,0.0,0.0,1.21846967915e-07,-0.00980665,-0.34323275,9.8262633,9e-08,0.0,0.0,0.0,9e-08,0.0,0.0,0.0,9e-08
1783583860928294614,3713,1783583860928294614,base_link,0.00190130494018,0.0188745976701,-0.997771988717,-0.0639624353303,1.0,0.0,0.0,0.0,1.0,0.0,0.0,0.0,1.0,-0.00376116321422,-0.00155530869961,-0.0290320776403,1.21846967915e-07,0.0,0.0,0.0,1.21846967915e-07,0.0,0.0,0.0,1.21846967915e-07,-0.00980665,-0.34323275,9.8262633,9e-08,0.0,0.0,0.0,9e-08,0.0,0.0,0.0,9e-08
1783583860928294614,3713,1783583860928294614,base_link,0.00190130494018,0.0188745976701,-0.997771988717,-0.0639624353303,1.0,0.0,0.0,0.0,1.0,0.0,0.0,0.0,1.0,-0.00376116321422,-0.00155530869961,-0.0290320776403,1.21846967915e-07,0.0,0.0,0.0,1.21846967915e-07,0.0,0.0,0.0,1.21846967915e-07,-0.00980665,-0.34323275,9.8262633,9e-08,0.0,0.0,0.0,9e-08,0.0,0.0,0.0,9e-08
1783583860928294614,3713,1783583860928294614,base_link,0.00190130494018,0.0188745976701,-0.997771988717,-0.0639624353303,1.0,0.0,0.0,0.0,1.0,0.0,0.0,0.0,1.0,-0.00376116321422,-0.00155530869961,-0.0290320776403,1.21846967915e-07,0.0,0.0,0.0,1.21846967915e-07,0.0,0.0,0.0,1.21846967915e-07,-0.00980665,-0.34323275,9.8262633,9e-08,0.0,0.0,0.0,9e-08,0.0,0.0,0.0,9e-08
1783583860928294614,3713,1783583860928294614,base_link,0.00190130494018,0.0188745976701,-0.997771988717,-0.0639624353303,1.0,0.0,0.0,0.0,1.0,0.0,0.0,0.0,1.0,-0.00376116321422,-0.00155530869961,-0.0290320776403,1.21846967915e-07,0.0,0.0,0.0,1.21846967915e-07,0.0,0.0,0.0,1.21846967915e-07,-0.00980665,-0.34323275,9.8262633,9e-08,0.0,0.0,0.0,9e-08,0.0,0.0,0.0,9e-08
1783583860928294614,3713,1783583860928294614,base_link,0.00190130494018,0.0188745976701,-0.997771988717,-0.0639624353303,1.0,0.0,0.0,0.0,1.0,0.0,0.0,0.0,1.0,-0.00376116321422,-0.00155530869961,-0.0290320776403,1.21846967915e-07,0.0,0.0,0.0,1.21846967915e-07,0.0,0.0,0.0,1.21846967915e-07,-0.00980665,-0.34323275,9.8262633,9e-08,0.0,0.0,0.0,9e-08,0.0,0.0,0.0,9e-08
1783583860928294614,3713,1783583860928294614,base_link,0.00190130494018,0.0188745976701,-0.997771988717,-0.0639624353303,1.0,0.0,0.0,0.0,1.0,0.0,0.0,0.0,1.0,-0.00376116321422,-0.00155530869961,-0.0290320776403,1.21846967915e-07,0.0,0.0,0.0,1.21846967915e-07,0.0,0.0,0.0,1.21846967915e-07,-0.00980665,-0.34323275,9.8262633,9e-08,0.0,0.0,0.0,9e-08,0.0,0.0,0.0,9e-08
1783583860928294614,3713,1783583860928294614,base_link,0.00190130494018,0.0188745976701,-0.997771988717,-0.0639624353303,1.0,0.0,0.0,0.0,1.0,0.0,0.0,0.0,1.0,-0.00376116321422,-0.00155530869961,-0.0290320776403,1.21846967915e-07,0.0,0.0,0.0,1.21846967915e-07,0.0,0.0,0.0,1.21846967915e-07,-0.00980665,-0.34323275,9.8262633,9e-08,0.0,0.0,0.0,9e-08,0.0,0.0,0.0,9e-08
1783583860928294614,3713,1783583860928294614,base_link,0.00190130494018,0.0188745976701,-0.997771988717,-0.0639624353303,1.0,0.0,0.0,0.0,1.0,0.0,0.0,0.0,1.0,-0.00376116321422,-0.00155530869961,-0.0290320776403,1.21846967915e-07,0.0,0.0,0.0,1.21846967915e-07,0.0,0.0,0.0,1.21846967915e-07,-0.00980665,-0.34323275,9.8262633,9e-08,0.0,0.0,0.0,9e-08,0.0,0.0,0.0,9e-08
1783583860928294614,3713,1783583860928294614,base_link,0.00190130494018,0.0188745976701,-0.997771988717,-0.0639624353303,1.0,0.0,0.0,0.0,1.0,0.0,0.0,0.0,1.0,-0.00376116321422,-0.00155530869961,-0.0290320776403,1.21846967915e-07,0.0,0.0,0.0,1.21846967915e-07,0.0,0.0,0.0,1.21846967915e-07,-0.00980665,-0.34323275,9.8262633,9e-08,0.0,0.0,0.0,9e-08,0.0,0.0,0.0,9e-08
1783583860928294614,3713,1783583860928294614,base_link,0.00190130494018,0.0188745976701,-0.997771988717,-0.0639624353303,1.0,0.0,0.0,0.0,1.0,0.0,0.0,0.0,1.0,-0.00376116321422,-0.00155530869961,-0.0290320776403,1.21846967915e-07,0.0,0.0,0.0,1.21846967915e-07,0.0,0.0,0.0,1.21846967915e-07,-0.00980665,-0.34323275,9.8262633,9e-08,0.0,0.0,0.0,9e-08,0.0,0.0,0.0,9e-08
1783583860928294614,3713,1783583860928294614,base_link,0.00190130494018,0.0188745976701,-0.997771988717,-0.0639624353303,1.0,0.0,0.0,0.0,1.0,0.0,0.0,0.0,1.0,-0.00376116321422,-0.00155530869961,-0.0290320776403,1.21846967915e-07,0.0,0.0,0.0,1.21846967915e-07,0.0,0.0,0.0,1.21846967915e-07,-0.00980665,-0.34323275,9.8262633,9e-08,0.0,0.0,0.0,9e-08,0.0,0.0,0.0,9e-08
1783583860928294614,3713,1783583860928294614,base_link,0.00190130494018,0.0188745976701,-0.997771988717,-0.0639624353303,1.0,0.0,0.0,0.0,1.0,0.0,0.0,0.0,1.0,-0.00376116321422,-0.00155530869961,-0.0290320776403,1.21846967915e-07,0.0,0.0,0.0,1.21846967915e-07,0.0,0.0,0.0,1.21846967915e-07,-0.00980665,-0.34323275,9.8262633,9e-08,0.0,0.0,0.0,9e-08,0.0,0.0,0.0,9e-08
1783583860928294614,3713,1783583860928294614,base_link,0.00190130494018,0.0188745976701,-0.997771988717,-0.0639624353303,1.0,0.0,0.0,0.0,1.0,0.0,0.0,0.0,1.0,-0.00376116321422,-0.00155530869961,-0.0290320776403,1.21846967915e-07,0.0,0.0,0.0,1.21846967915e-07,0.0,0.0,0.0,1.21846967915e-07,-0.00980665,-0.34323275,9.8262633,9e-08,0.0,0.0,0.0,9e-08,0.0,0.0,0.0,9e-08
1783583860928294614,3713,1783583860928294614,base_link,0.00190130494018,0.0188745976701,-0.997771988717,-0.0639624353303,1.0,0.0,0.0,0.0,1.0,0.0,0.0,0.0,1.0,-0.00376116321422,-0.00155530869961,-0.0290320776403,1.21846967915e-07,0.0,0.0,0.0,1.21846967915e-07,0.0,0.0,0.0,1.21846967915e-07,-0.00980665,-0.34323275,9.8262633,9e-08,0.0,0.0,0.0,9e-08,0.0,0.0,0.0,9e-08
1783583861169256504,3714,1783583861169256504,base_link,0.00166340302682,0.0180344343471,-0.997582794034,-0.0670862229856,1.0,0.0,0.0,0.0,1.0,0.0,0.0,0.0,1.0,0.00689655076712,0.00115422811359,-0.0216679684818,1.21846967915e-07,0.0,0.0,0.0,1.21846967915e-07,0.0,0.0,0.0,1.21846967915e-07,-0.00980665,-0.3334261,9.79684335,9e-08,0.0,0.0,0.0,9e-08,0.0,0.0,0.0,9e-08
1783583861169256504,3714,1783583861169256504,base_link,0.00166340302682,0.0180344343471,-0.997582794034,-0.0670862229856,1.0,0.0,0.0,0.0,1.0,0.0,0.0,0.0,1.0,0.00689655076712,0.00115422811359,-0.0216679684818,1.21846967915e-07,0.0,0.0,0.0,1.21846967915e-07,0.0,0.0,0.0,1.21846967915e-07,-0.00980665,-0.3334261,9.79684335,9e-08,0.0,0.0,0.0,9e-08,0.0,0.0,0.0,9e-08
1783583861169256504,3714,1783583861169256504,base_link,0.00166340302682,0.0180344343471,-0.997582794034,-0.0670862229856,1.0,0.0,0.0,0.0,1.0,0.0,0.0,0.0,1.0,0.00689655076712,0.00115422811359,-0.0216679684818,1.21846967915e-07,0.0,0.0,0.0,1.21846967915e-07,0.0,0.0,0.0,1.21846967915e-07,-0.00980665,-0.3334261,9.79684335,9e-08,0.0,0.0,0.0,9e-08,0.0,0.0,0.0,9e-08
1783583861169256504,3714,1783583861169256504,base_link,0.00166340302682,0.0180344343471,-0.997582794034,-0.0670862229856,1.0,0.0,0.0,0.0,1.0,0.0,0.0,0.0,1.0,0.00689655076712,0.00115422811359,-0.0216679684818,1.21846967915e-07,0.0,0.0,0.0,1.21846967915e-07,0.0,0.0,0.0,1.21846967915e-07,-0.00980665,-0.3334261,9.79684335,9e-08,0.0,0.0,0.0,9e-08,0.0,0.0,0.0,9e-08
1783583861169256504,3714,1783583861169256504,base_link,0.00166340302682,0.0180344343471,-0.997582794034,-0.0670862229856,1.0,0.0,0.0,0.0,1.0,0.0,0.0,0.0,1.0,0.00689655076712,0.00115422811359,-0.0216679684818,1.21846967915e-07,0.0,0.0,0.0,1.21846967915e-07,0.0,0.0,0.0,1.21846967915e-07,-0.00980665,-0.3334261,9.79684335,9e-08,0.0,0.0,0.0,9e-08,0.0,0.0,0.0,9e-08
1783583861169256504,3714,1783583861169256504,base_link,0.00166340302682,0.0180344343471,-0.997582794034,-0.0670862229856,1.0,0.0,0.0,0.0,1.0,0.0,0.0,0.0,1.0,0.00689655076712,0.00115422811359,-0.0216679684818,1.21846967915e-07,0.0,0.0,0.0,1.21846967915e-07,0.0,0.0,0.0,1.21846967915e-07,-0.00980665,-0.3334261,9.79684335,9e-08,0.0,0.0,0.0,9e-08,0.0,0.0,0.0,9e-08
1783583861169256504,3714,1783583861169256504,base_link,0.00166340302682,0.0180344343471,-0.997582794034,-0.0670862229856,1.0,0.0,0.0,0.0,1.0,0.0,0.0,0.0,1.0,0.00689655076712,0.00115422811359,-0.0216679684818,1.21846967915e-07,0.0,0.0,0.0,1.21846967915e-07,0.0,0.0,0.0,1.21846967915e-07,-0.00980665,-0.3334261,9.79684335,9e-08,0.0,0.0,0.0,9e-08,0.0,0.0,0.0,9e-08
1783583861169256504,3714,1783583861169256504,base_link,0.00166340302682,0.0180344343471,-0.997582794034,-0.0670862229856,1.0,0.0,0.0,0.0,1.0,0.0,0.0,0.0,1.0,0.00689655076712,0.00115422811359,-0.0216679684818,1.21846967915e-07,0.0,0.0,0.0,1.21846967915e-07,0.0,0.0,0.0,1.21846967915e-07,-0.00980665,-0.3334261,9.79684335,9e-08,0.0,0.0,0.0,9e-08,0.0,0.0,0.0,9e-08
1783583861169256504,3714,1783583861169256504,base_link,0.00166340302682,0.0180344343471,-0.997582794034,-0.0670862229856,1.0,0.0,0.0,0.0,1.0,0.0,0.0,0.0,1.0,0.00689655076712,0.00115422811359,-0.0216679684818,1.21846967915e-07,0.0,0.0,0.0,1.21846967915e-07,0.0,0.0,0.0,1.21846967915e-07,-0.00980665,-0.3334261,9.79684335,9e-08,0.0,0.0,0.0,9e-08,0.0,0.0,0.0,9e-08
1783583861169256504,3714,1783583861169256504,base_link,0.00166340302682,0.0180344343471,-0.997582794034,-0.0670862229856,1.0,0.0,0.0,0.0,1.0,0.0,0.0,0.0,1.0,0.00689655076712,0.00115422811359,-0.0216679684818,1.21846967915e-07,0.0,0.0,0.0,1.21846967915e-07,0.0,0.0,0.0,1.21846967915e-07,-0.00980665,-0.3334261,9.79684335,9e-08,0.0,0.0,0.0,9e-08,0.0,0.0,0.0,9e-08
1783583861169256504,3714,1783583861169256504,base_link,0.00166340302682,0.0180344343471,-0.997582794034,-0.0670862229856,1.0,0.0,0.0,0.0,1.0,0.0,0.0,0.0,1.0,0.00689655076712,0.00115422811359,-0.0216679684818,1.21846967915e-07,0.0,0.0,0.0,1.21846967915e-07,0.0,0.0,0.0,1.21846967915e-07,-0.00980665,-0.3334261,9.79684335,9e-08,0.0,0.0,0.0,9e-08,0.0,0.0,0.0,9e-08
1783583861169256504,3714,1783583861169256504,base_link,0.00166340302682,0.0180344343471,-0.997582794034,-0.0670862229856,1.0,0.0,0.0,0.0,1.0,0.0,0.0,0.0,1.0,0.00689655076712,0.00115422811359,-0.0216679684818,1.21846967915e-07,0.0,0.0,0.0,1.21846967915e-07,0.0,0.0,0.0,1.21846967915e-07,-0.00980665,-0.3334261,9.79684335,9e-08,0.0,0.0,0.0,9e-08,0.0,0.0,0.0,9e-08
1783583861169256504,3714,1783583861169256504,base_link,0.00166340302682,0.0180344343471,-0.997582794034,-0.0670862229856,1.0,0.0,0.0,0.0,1.0,0.0,0.0,0.0,1.0,0.00689655076712,0.00115422811359,-0.0216679684818,1.21846967915e-07,0.0,0.0,0.0,1.21846967915e-07,0.0,0.0,0.0,1.21846967915e-07,-0.00980665,-0.3334261,9.79684335,9e-08,0.0,0.0,0.0,9e-08,0.0,0.0,0.0,9e-08
1783583861169256504,3714,1783583861169256504,base_link,0.00166340302682,0.0180344343471,-0.997582794034,-0.0670862229856,1.0,0.0,0.0,0.0,1.0,0.0,0.0,0.0,1.0,0.00689655076712,0.00115422811359,-0.0216679684818,1.21846967915e-07,0.0,0.0,0.0,1.21846967915e-07,0.0,0.0,0.0,1.21846967915e-07,-0.00980665,-0.3334261,9.79684335,9e-08,0.0,0.0,0.0,9e-08,0.0,0.0,0.0,9e-08
1783583861169256504,3714,1783583861169256504,base_link,0.00166340302682,0.0180344343471,-0.997582794034,-0.0670862229856,1.0,0.0,0.0,0.0,1.0,0.0,0.0,0.0,1.0,0.00689655076712,0.00115422811359,-0.0216679684818,1.21846967915e-07,0.0,0.0,0.0,1.21846967915e-07,0.0,0.0,0.0,1.21846967915e-07,-0.00980665,-0.3334261,9.79684335,9e-08,0.0,0.0,0.0,9e-08,0.0,0.0,0.0,9e-08
1783583861169256504,3714,1783583861169256504,base_link,0.00166340302682,0.0180344343471,-0.997582794034,-0.0670862229856,1.0,0.0,0.0,0.0,1.0,0.0,0.0,0.0,1.0,0.00689655076712,0.00115422811359,-0.0216679684818,1.21846967915e-07,0.0,0.0,0.0,1.21846967915e-07,0.0,0.0,0.0,1.21846967915e-07,-0.00980665,-0.3334261,9.79684335,9e-08,0.0,0.0,0.0,9e-08,0.0,0.0,0.0,9e-08
1783583861169256504,3714,1783583861169256504,base_link,0.00166340302682,0.0180344343471,-0.997582794034,-0.0670862229856,1.0,0.0,0.0,0.0,1.0,0.0,0.0,0.0,1.0,0.00689655076712,0.00115422811359,-0.0216679684818,1.21846967915e-07,0.0,0.0,0.0,1.21846967915e-07,0.0,0.0,0.0,1.21846967915e-07,-0.00980665,-0.3334261,9.79684335,9e-08,0.0,0.0,0.0,9e-08,0.0,0.0,0.0,9e-08
1783583861169256504,3714,1783583861169256504,base_link,0.00166340302682,0.0180344343471,-0.997582794034,-0.0670862229856,1.0,0.0,0.0,0.0,1.0,0.0,0.0,0.0,1.0,0.00689655076712,0.00115422811359,-0.0216679684818,1.21846967915e-07,0.0,0.0,0.0,1.21846967915e-07,0.0,0.0,0.0,1.21846967915e-07,-0.00980665,-0.3334261,9.79684335,9e-08,0.0,0.0,0.0,9e-08,0.0,0.0,0.0,9e-08
1783583861169256504,3714,1783583861169256504,base_link,0.00166340302682,0.0180344343471,-0.997582794034,-0.0670862229856,1.0,0.0,0.0,0.0,1.0,0.0,0.0,0.0,1.0,0.00689655076712,0.00115422811359,-0.0216679684818,1.21846967915e-07,0.0,0.0,0.0,1.21846967915e-07,0.0,0.0,0.0,1.21846967915e-07,-0.00980665,-0.3334261,9.79684335,9e-08,0.0,0.0,0.0,9e-08,0.0,0.0,0.0,9e-08
1783583861169256504,3714,1783583861169256504,base_link,0.00166340302682,0.0180344343471,-0.997582794034,-0.0670862229856,1.0,0.0,0.0,0.0,1.0,0.0,0.0,0.0,1.0,0.00689655076712,0.00115422811359,-0.0216679684818,1.21846967915e-07,0.0,0.0,0.0,1.21846967915e-07,0.0,0.0,0.0,1.21846967915e-07,-0.00980665,-0.3334261,9.79684335,9e-08,0.0,0.0,0.0,9e-08,0.0,0.0,0.0,9e-08
1783583861169256504,3714,1783583861169256504,base_link,0.00166340302682,0.0180344343471,-0.997582794034,-0.0670862229856,1.0,0.0,0.0,0.0,1.0,0.0,0.0,0.0,1.0,0.00689655076712,0.00115422811359,-0.0216679684818,1.21846967915e-07,0.0,0.0,0.0,1.21846967915e-07,0.0,0.0,0.0,1.21846967915e-07,-0.00980665,-0.3334261,9.79684335,9e-08,0.0,0.0,0.0,9e-08,0.0,0.0,0.0,9e-08
1783583861169256504,3714,1783583861169256504,base_link,0.00166340302682,0.0180344343471,-0.997582794034,-0.0670862229856,1.0,0.0,0.0,0.0,1.0,0.0,0.0,0.0,1.0,0.00689655076712,0.00115422811359,-0.0216679684818,1.21846967915e-07,0.0,0.0,0.0,1.21846967915e-07,0.0,0.0,0.0,1.21846967915e-07,-0.00980665,-0.3334261,9.79684335,9e-08,0.0,0.0,0.0,9e-08,0.0,0.0,0.0,9e-08
1783583861169256504,3714,1783583861169256504,base_link,0.00166340302682,0.0180344343471,-0.997582794034,-0.0670862229856,1.0,0.0,0.0,0.0,1.0,0.0,0.0,0.0,1.0,0.00689655076712,0.00115422811359,-0.0216679684818,1.21846967915e-07,0.0,0.0,0.0,1.21846967915e-07,0.0,0.0,0.0,1.21846967915e-07,-0.00980665,-0.3334261,9.79684335,9e-08,0.0,0.0,0.0,9e-08,0.0,0.0,0.0,9e-08
1783583861169256504,3714,1783583861169256504,base_link,0.00166340302682,0.0180344343471,-0.997582794034,-0.0670862229856,1.0,0.0,0.0,0.0,1.0,0.0,0.0,0.0,1.0,0.00689655076712,0.00115422811359,-0.0216679684818,1.21846967915e-07,0.0,0.0,0.0,1.21846967915e-07,0.0,0.0,0.0,1.21846967915e-07,-0.00980665,-0.3334261,9.79684335,9e-08,0.0,0.0,0.0,9e-08,0.0,0.0,0.0,9e-08
1783583861169256504,3714,1783583861169256504,base_link,0.00166340302682,0.0180344343471,-0.997582794034,-0.0670862229856,1.0,0.0,0.0,0.0,1.0,0.0,0.0,0.0,1.0,0.00689655076712,0.00115422811359,-0.0216679684818,1.21846967915e-07,0.0,0.0,0.0,1.21846967915e-07,0.0,0.0,0.0,1.21846967915e-07,-0.00980665,-0.3334261,9.79684335,9e-08,0.0,0.0,0.0,9e-08,0.0,0.0,0.0,9e-08
1783583861169256504,3714,1783583861169256504,base_link,0.00166340302682,0.0180344343471,-0.997582794034,-0.0670862229856,1.0,0.0,0.0,0.0,1.0,0.0,0.0,0.0,1.0,0.00689655076712,0.00115422811359,-0.0216679684818,1.21846967915e-07,0.0,0.0,0.0,1.21846967915e-07,0.0,0.0,0.0,1.21846967915e-07,-0.00980665,-0.3334261,9.79684335,9e-08,0.0,0.0,0.0,9e-08,0.0,0.0,0.0,9e-08
1783583861429259320,3715,1783583861429259320,base_link,0.00229782776608,0.0225071160639,-0.998878071012,-0.0416022711672,1.0,0.0,0.0,0.0,1.0,0.0,0.0,0.0,1.0,-0.0461720079184,-0.0013452610001,0.299787402153,1.21846967915e-07,0.0,0.0,0.0,1.21846967915e-07,0.0,0.0,0.0,1.21846967915e-07,-0.00980665,-0.3334261,9.79684335,9e-08,0.0,0.0,0.0,9e-08,0.0,0.0,0.0,9e-08
1783583861429259320,3715,1783583861429259320,base_link,0.00229782776608,0.0225071160639,-0.998878071012,-0.0416022711672,1.0,0.0,0.0,0.0,1.0,0.0,0.0,0.0,1.0,-0.0461720079184,-0.0013452610001,0.299787402153,1.21846967915e-07,0.0,0.0,0.0,1.21846967915e-07,0.0,0.0,0.0,1.21846967915e-07,-0.00980665,-0.3334261,9.79684335,9e-08,0.0,0.0,0.0,9e-08,0.0,0.0,0.0,9e-08
1783583861429259320,3715,1783583861429259320,base_link,0.00229782776608,0.0225071160639,-0.998878071012,-0.0416022711672,1.0,0.0,0.0,0.0,1.0,0.0,0.0,0.0,1.0,-0.0461720079184,-0.0013452610001,0.299787402153,1.21846967915e-07,0.0,0.0,0.0,1.21846967915e-07,0.0,0.0,0.0,1.21846967915e-07,-0.00980665,-0.3334261,9.79684335,9e-08,0.0,0.0,0.0,9e-08,0.0,0.0,0.0,9e-08
1783583861429259320,3715,1783583861429259320,base_link,0.00229782776608,0.0225071160639,-0.998878071012,-0.0416022711672,1.0,0.0,0.0,0.0,1.0,0.0,0.0,0.0,1.0,-0.0461720079184,-0.0013452610001,0.299787402153,1.21846967915e-07,0.0,0.0,0.0,1.21846967915e-07,0.0,0.0,0.0,1.21846967915e-07,-0.00980665,-0.3334261,9.79684335,9e-08,0.0,0.0,0.0,9e-08,0.0,0.0,0.0,9e-08
1783583861429259320,3715,1783583861429259320,base_link,0.00229782776608,0.0225071160639,-0.998878071012,-0.0416022711672,1.0,0.0,0.0,0.0,1.0,0.0,0.0,0.0,1.0,-0.0461720079184,-0.0013452610001,0.299787402153,1.21846967915e-07,0.0,0.0,0.0,1.21846967915e-07,0.0,0.0,0.0,1.21846967915e-07,-0.00980665,-0.3334261,9.79684335,9e-08,0.0,0.0,0.0,9e-08,0.0,0.0,0.0,9e-08
1783583861429259320,3715,1783583861429259320,base_link,0.00229782776608,0.0225071160639,-0.998878071012,-0.0416022711672,1.0,0.0,0.0,0.0,1.0,0.0,0.0,0.0,1.0,-0.0461720079184,-0.0013452610001,0.299787402153,1.21846967915e-07,0.0,0.0,0.0,1.21846967915e-07,0.0,0.0,0.0,1.21846967915e-07,-0.00980665,-0.3334261,9.79684335,9e-08,0.0,0.0,0.0,9e-08,0.0,0.0,0.0,9e-08
1783583861429259320,3715,1783583861429259320,base_link,0.00229782776608,0.0225071160639,-0.998878071012,-0.0416022711672,1.0,0.0,0.0,0.0,1.0,0.0,0.0,0.0,1.0,-0.0461720079184,-0.0013452610001,0.299787402153,1.21846967915e-07,0.0,0.0,0.0,1.21846967915e-07,0.0,0.0,0.0,1.21846967915e-07,-0.00980665,-0.3334261,9.79684335,9e-08,0.0,0.0,0.0,9e-08,0.0,0.0,0.0,9e-08
1783583861429259320,3715,1783583861429259320,base_link,0.00229782776608,0.0225071160639,-0.998878071012,-0.0416022711672,1.0,0.0,0.0,0.0,1.0,0.0,0.0,0.0,1.0,-0.0461720079184,-0.0013452610001,0.299787402153,1.21846967915e-07,0.0,0.0,0.0,1.21846967915e-07,0.0,0.0,0.0,1.21846967915e-07,-0.00980665,-0.3334261,9.79684335,9e-08,0.0,0.0,0.0,9e-08,0.0,0.0,0.0,9e-08
1783583861429259320,3715,1783583861429259320,base_link,0.00229782776608,0.0225071160639,-0.998878071012,-0.0416022711672,1.0,0.0,0.0,0.0,1.0,0.0,0.0,0.0,1.0,-0.0461720079184,-0.0013452610001,0.299787402153,1.21846967915e-07,0.0,0.0,0.0,1.21846967915e-07,0.0,0.0,0.0,1.21846967915e-07,-0.00980665,-0.3334261,9.79684335,9e-08,0.0,0.0,0.0,9e-08,0.0,0.0,0.0,9e-08
1783583861429259320,3715,1783583861429259320,base_link,0.00229782776608,0.0225071160639,-0.998878071012,-0.0416022711672,1.0,0.0,0.0,0.0,1.0,0.0,0.0,0.0,1.0,-0.0461720079184,-0.0013452610001,0.299787402153,1.21846967915e-07,0.0,0.0,0.0,1.21846967915e-07,0.0,0.0,0.0,1.21846967915e-07,-0.00980665,-0.3334261,9.79684335,9e-08,0.0,0.0,0.0,9e-08,0.0,0.0,0.0,9e-08
1783583861429259320,3715,1783583861429259320,base_link,0.00229782776608,0.0225071160639,-0.998878071012,-0.0416022711672,1.0,0.0,0.0,0.0,1.0,0.0,0.0,0.0,1.0,-0.0461720079184,-0.0013452610001,0.299787402153,1.21846967915e-07,0.0,0.0,0.0,1.21846967915e-07,0.0,0.0,0.0,1.21846967915e-07,-0.00980665,-0.3334261,9.79684335,9e-08,0.0,0.0,0.0,9e-08,0.0,0.0,0.0,9e-08
1783583861429259320,3715,1783583861429259320,base_link,0.00229782776608,0.0225071160639,-0.998878071012,-0.0416022711672,1.0,0.0,0.0,0.0,1.0,0.0,0.0,0.0,1.0,-0.0461720079184,-0.0013452610001,0.299787402153,1.21846967915e-07,0.0,0.0,0.0,1.21846967915e-07,0.0,0.0,0.0,1.21846967915e-07,-0.00980665,-0.3334261,9.79684335,9e-08,0.0,0.0,0.0,9e-08,0.0,0.0,0.0,9e-08
1783583861429259320,3715,1783583861429259320,base_link,0.00229782776608,0.0225071160639,-0.998878071012,-0.0416022711672,1.0,0.0,0.0,0.0,1.0,0.0,0.0,0.0,1.0,-0.0461720079184,-0.0013452610001,0.299787402153,1.21846967915e-07,0.0,0.0,0.0,1.21846967915e-07,0.0,0.0,0.0,1.21846967915e-07,-0.00980665,-0.3334261,9.79684335,9e-08,0.0,0.0,0.0,9e-08,0.0,0.0,0.0,9e-08
1783583861429259320,3715,1783583861429259320,base_link,0.00229782776608,0.0225071160639,-0.998878071012,-0.0416022711672,1.0,0.0,0.0,0.0,1.0,0.0,0.0,0.0,1.0,-0.0461720079184,-0.0013452610001,0.299787402153,1.21846967915e-07,0.0,0.0,0.0,1.21846967915e-07,0.0,0.0,0.0,1.21846967915e-07,-0.00980665,-0.3334261,9.79684335,9e-08,0.0,0.0,0.0,9e-08,0.0,0.0,0.0,9e-08
1783583861429259320,3715,1783583861429259320,base_link,0.00229782776608,0.0225071160639,-0.998878071012,-0.0416022711672,1.0,0.0,0.0,0.0,1.0,0.0,0.0,0.0,1.0,-0.0461720079184,-0.0013452610001,0.299787402153,1.21846967915e-07,0.0,0.0,0.0,1.21846967915e-07,0.0,0.0,0.0,1.21846967915e-07,-0.00980665,-0.3334261,9.79684335,9e-08,0.0,0.0,0.0,9e-08,0.0,0.0,0.0,9e-08
1783583861429259320,3715,1783583861429259320,base_link,0.00229782776608,0.0225071160639,-0.998878071012,-0.0416022711672,1.0,0.0,0.0,0.0,1.0,0.0,0.0,0.0,1.0,-0.0461720079184,-0.0013452610001,0.299787402153,1.21846967915e-07,0.0,0.0,0.0,1.21846967915e-07,0.0,0.0,0.0,1.21846967915e-07,-0.00980665,-0.3334261,9.79684335,9e-08,0.0,0.0,0.0,9e-08,0.0,0.0,0.0,9e-08
1783583861429259320,3715,1783583861429259320,base_link,0.00229782776608,0.0225071160639,-0.998878071012,-0.0416022711672,1.0,0.0,0.0,0.0,1.0,0.0,0.0,0.0,1.0,-0.0461720079184,-0.0013452610001,0.299787402153,1.21846967915e-07,0.0,0.0,0.0,1.21846967915e-07,0.0,0.0,0.0,1.21846967915e-07,-0.00980665,-0.3334261,9.79684335,9e-08,0.0,0.0,0.0,9e-08,0.0,0.0,0.0,9e-08
1783583861429259320,3715,1783583861429259320,base_link,0.00229782776608,0.0225071160639,-0.998878071012,-0.0416022711672,1.0,0.0,0.0,0.0,1.0,0.0,0.0,0.0,1.0,-0.0461720079184,-0.0013452610001,0.299787402153,1.21846967915e-07,0.0,0.0,0.0,1.21846967915e-07,0.0,0.0,0.0,1.21846967915e-07,-0.00980665,-0.3334261,9.79684335,9e-08,0.0,0.0,0.0,9e-08,0.0,0.0,0.0,9e-08
1783583861429259320,3715,1783583861429259320,base_link,0.00229782776608,0.0225071160639,-0.998878071012,-0.0416022711672,1.0,0.0,0.0,0.0,1.0,0.0,0.0,0.0,1.0,-0.0461720079184,-0.0013452610001,0.299787402153,1.21846967915e-07,0.0,0.0,0.0,1.21846967915e-07,0.0,0.0,0.0,1.21846967915e-07,-0.00980665,-0.3334261,9.79684335,9e-08,0.0,0.0,0.0,9e-08,0.0,0.0,0.0,9e-08
1783583861429259320,3715,1783583861429259320,base_link,0.00229782776608,0.0225071160639,-0.998878071012,-0.0416022711672,1.0,0.0,0.0,0.0,1.0,0.0,0.0,0.0,1.0,-0.0461720079184,-0.0013452610001,0.299787402153,1.21846967915e-07,0.0,0.0,0.0,1.21846967915e-07,0.0,0.0,0.0,1.21846967915e-07,-0.00980665,-0.3334261,9.79684335,9e-08,0.0,0.0,0.0,9e-08,0.0,0.0,0.0,9e-08
1783583861429259320,3715,1783583861429259320,base_link,0.00229782776608,0.0225071160639,-0.998878071012,-0.0416022711672,1.0,0.0,0.0,0.0,1.0,0.0,0.0,0.0,1.0,-0.0461720079184,-0.0013452610001,0.299787402153,1.21846967915e-07,0.0,0.0,0.0,1.21846967915e-07,0.0,0.0,0.0,1.21846967915e-07,-0.00980665,-0.3334261,9.79684335,9e-08,0.0,0.0,0.0,9e-08,0.0,0.0,0.0,9e-08
1783583861429259320,3715,1783583861429259320,base_link,0.00229782776608,0.0225071160639,-0.998878071012,-0.0416022711672,1.0,0.0,0.0,0.0,1.0,0.0,0.0,0.0,1.0,-0.0461720079184,-0.0013452610001,0.299787402153,1.21846967915e-07,0.0,0.0,0.0,1.21846967915e-07,0.0,0.0,0.0,1.21846967915e-07,-0.00980665,-0.3334261,9.79684335,9e-08,0.0,0.0,0.0,9e-08,0.0,0.0,0.0,9e-08
1783583861429259320,3715,1783583861429259320,base_link,0.00229782776608,0.0225071160639,-0.998878071012,-0.0416022711672,1.0,0.0,0.0,0.0,1.0,0.0,0.0,0.0,1.0,-0.0461720079184,-0.0013452610001,0.299787402153,1.21846967915e-07,0.0,0.0,0.0,1.21846967915e-07,0.0,0.0,0.0,1.21846967915e-07,-0.00980665,-0.3334261,9.79684335,9e-08,0.0,0.0,0.0,9e-08,0.0,0.0,0.0,9e-08
1783583861429259320,3715,1783583861429259320,base_link,0.00229782776608,0.0225071160639,-0.998878071012,-0.0416022711672,1.0,0.0,0.0,0.0,1.0,0.0,0.0,0.0,1.0,-0.0461720079184,-0.0013452610001,0.299787402153,1.21846967915e-07,0.0,0.0,0.0,1.21846967915e-07,0.0,0.0,0.0,1.21846967915e-07,-0.00980665,-0.3334261,9.79684335,9e-08,0.0,0.0,0.0,9e-08,0.0,0.0,0.0,9e-08
1783583861669435069,3716,1783583861669435069,base_link,0.00100877123486,0.0143445124505,-0.997730398313,-0.0657819855732,1.0,0.0,0.0,0.0,1.0,0.0,0.0,0.0,1.0,0.0621930286288,-0.00820870976895,-0.282053828239,1.21846967915e-07,0.0,0.0,0.0,1.21846967915e-07,0.0,0.0,0.0,1.21846967915e-07,-0.2353596,0.59820565,9.52225715,9e-08,0.0,0.0,0.0,9e-08,0.0,0.0,0.0,9e-08
1783583861669435069,3716,1783583861669435069,base_link,0.00100877123486,0.0143445124505,-0.997730398313,-0.0657819855732,1.0,0.0,0.0,0.0,1.0,0.0,0.0,0.0,1.0,0.0621930286288,-0.00820870976895,-0.282053828239,1.21846967915e-07,0.0,0.0,0.0,1.21846967915e-07,0.0,0.0,0.0,1.21846967915e-07,-0.2353596,0.59820565,9.52225715,9e-08,0.0,0.0,0.0,9e-08,0.0,0.0,0.0,9e-08
1783583861669435069,3716,1783583861669435069,base_link,0.00100877123486,0.0143445124505,-0.997730398313,-0.0657819855732,1.0,0.0,0.0,0.0,1.0,0.0,0.0,0.0,1.0,0.0621930286288,-0.00820870976895,-0.282053828239,1.21846967915e-07,0.0,0.0,0.0,1.21846967915e-07,0.0,0.0,0.0,1.21846967915e-07,-0.2353596,0.59820565,9.52225715,9e-08,0.0,0.0,0.0,9e-08,0.0,0.0,0.0,9e-08
1783583861669435069,3716,1783583861669435069,base_link,0.00100877123486,0.0143445124505,-0.997730398313,-0.0657819855732,1.0,0.0,0.0,0.0,1.0,0.0,0.0,0.0,1.0,0.0621930286288,-0.00820870976895,-0.282053828239,1.21846967915e-07,0.0,0.0,0.0,1.21846967915e-07,0.0,0.0,0.0,1.21846967915e-07,-0.2353596,0.59820565,9.52225715,9e-08,0.0,0.0,0.0,9e-08,0.0,0.0,0.0,9e-08
1783583861669435069,3716,1783583861669435069,base_link,0.00100877123486,0.0143445124505,-0.997730398313,-0.0657819855732,1.0,0.0,0.0,0.0,1.0,0.0,0.0,0.0,1.0,0.0621930286288,-0.00820870976895,-0.282053828239,1.21846967915e-07,0.0,0.0,0.0,1.21846967915e-07,0.0,0.0,0.0,1.21846967915e-07,-0.2353596,0.59820565,9.52225715,9e-08,0.0,0.0,0.0,9e-08,0.0,0.0,0.0,9e-08
1783583861669435069,3716,1783583861669435069,base_link,0.00100877123486,0.0143445124505,-0.997730398313,-0.0657819855732,1.0,0.0,0.0,0.0,1.0,0.0,0.0,0.0,1.0,0.0621930286288,-0.00820870976895,-0.282053828239,1.21846967915e-07,0.0,0.0,0.0,1.21846967915e-07,0.0,0.0,0.0,1.21846967915e-07,-0.2353596,0.59820565,9.52225715,9e-08,0.0,0.0,0.0,9e-08,0.0,0.0,0.0,9e-08
1783583861669435069,3716,1783583861669435069,base_link,0.00100877123486,0.0143445124505,-0.997730398313,-0.0657819855732,1.0,0.0,0.0,0.0,1.0,0.0,0.0,0.0,1.0,0.0621930286288,-0.00820870976895,-0.282053828239,1.21846967915e-07,0.0,0.0,0.0,1.21846967915e-07,0.0,0.0,0.0,1.21846967915e-07,-0.2353596,0.59820565,9.52225715,9e-08,0.0,0.0,0.0,9e-08,0.0,0.0,0.0,9e-08
1783583861669435069,3716,1783583861669435069,base_link,0.00100877123486,0.0143445124505,-0.997730398313,-0.0657819855732,1.0,0.0,0.0,0.0,1.0,0.0,0.0,0.0,1.0,0.0621930286288,-0.00820870976895,-0.282053828239,1.21846967915e-07,0.0,0.0,0.0,1.21846967915e-07,0.0,0.0,0.0,1.21846967915e-07,-0.2353596,0.59820565,9.52225715,9e-08,0.0,0.0,0.0,9e-08,0.0,0.0,0.0,9e-08
1783583861669435069,3716,1783583861669435069,base_link,0.00100877123486,0.0143445124505,-0.997730398313,-0.0657819855732,1.0,0.0,0.0,0.0,1.0,0.0,0.0,0.0,1.0,0.0621930286288,-0.00820870976895,-0.282053828239,1.21846967915e-07,0.0,0.0,0.0,1.21846967915e-07,0.0,0.0,0.0,1.21846967915e-07,-0.2353596,0.59820565,9.52225715,9e-08,0.0,0.0,0.0,9e-08,0.0,0.0,0.0,9e-08
1783583861669435069,3716,1783583861669435069,base_link,0.00100877123486,0.0143445124505,-0.997730398313,-0.0657819855732,1.0,0.0,0.0,0.0,1.0,0.0,0.0,0.0,1.0,0.0621930286288,-0.00820870976895,-0.282053828239,1.21846967915e-07,0.0,0.0,0.0,1.21846967915e-07,0.0,0.0,0.0,1.21846967915e-07,-0.2353596,0.59820565,9.52225715,9e-08,0.0,0.0,0.0,9e-08,0.0,0.0,0.0,9e-08
1783583861669435069,3716,1783583861669435069,base_link,0.00100877123486,0.0143445124505,-0.997730398313,-0.0657819855732,1.0,0.0,0.0,0.0,1.0,0.0,0.0,0.0,1.0,0.0621930286288,-0.00820870976895,-0.282053828239,1.21846967915e-07,0.0,0.0,0.0,1.21846967915e-07,0.0,0.0,0.0,1.21846967915e-07,-0.2353596,0.59820565,9.52225715,9e-08,0.0,0.0,0.0,9e-08,0.0,0.0,0.0,9e-08
1783583861669435069,3716,1783583861669435069,base_link,0.00100877123486,0.0143445124505,-0.997730398313,-0.0657819855732,1.0,0.0,0.0,0.0,1.0,0.0,0.0,0.0,1.0,0.0621930286288,-0.00820870976895,-0.282053828239,1.21846967915e-07,0.0,0.0,0.0,1.21846967915e-07,0.0,0.0,0.0,1.21846967915e-07,-0.2353596,0.59820565,9.52225715,9e-08,0.0,0.0,0.0,9e-08,0.0,0.0,0.0,9e-08
1783583861669435069,3716,1783583861669435069,base_link,0.00100877123486,0.0143445124505,-0.997730398313,-0.0657819855732,1.0,0.0,0.0,0.0,1.0,0.0,0.0,0.0,1.0,0.0621930286288,-0.00820870976895,-0.282053828239,1.21846967915e-07,0.0,0.0,0.0,1.21846967915e-07,0.0,0.0,0.0,1.21846967915e-07,-0.2353596,0.59820565,9.52225715,9e-08,0.0,0.0,0.0,9e-08,0.0,0.0,0.0,9e-08
1783583861669435069,3716,1783583861669435069,base_link,0.00100877123486,0.0143445124505,-0.997730398313,-0.0657819855732,1.0,0.0,0.0,0.0,1.0,0.0,0.0,0.0,1.0,0.0621930286288,-0.00820870976895,-0.282053828239,1.21846967915e-07,0.0,0.0,0.0,1.21846967915e-07,0.0,0.0,0.0,1.21846967915e-07,-0.2353596,0.59820565,9.52225715,9e-08,0.0,0.0,0.0,9e-08,0.0,0.0,0.0,9e-08
1783583861669435069,3716,1783583861669435069,base_link,0.00100877123486,0.0143445124505,-0.997730398313,-0.0657819855732,1.0,0.0,0.0,0.0,1.0,0.0,0.0,0.0,1.0,0.0621930286288,-0.00820870976895,-0.282053828239,1.21846967915e-07,0.0,0.0,0.0,1.21846967915e-07,0.0,0.0,0.0,1.21846967915e-07,-0.2353596,0.59820565,9.52225715,9e-08,0.0,0.0,0.0,9e-08,0.0,0.0,0.0,9e-08
1783583861669435069,3716,1783583861669435069,base_link,0.00100877123486,0.0143445124505,-0.997730398313,-0.0657819855732,1.0,0.0,0.0,0.0,1.0,0.0,0.0,0.0,1.0,0.0621930286288,-0.00820870976895,-0.282053828239,1.21846967915e-07,0.0,0.0,0.0,1.21846967915e-07,0.0,0.0,0.0,1.21846967915e-07,-0.2353596,0.59820565,9.52225715,9e-08,0.0,0.0,0.0,9e-08,0.0,0.0,0.0,9e-08
1783583861669435069,3716,1783583861669435069,base_link,0.00100877123486,0.0143445124505,-0.997730398313,-0.0657819855732,1.0,0.0,0.0,0.0,1.0,0.0,0.0,0.0,1.0,0.0621930286288,-0.00820870976895,-0.282053828239,1.21846967915e-07,0.0,0.0,0.0,1.21846967915e-07,0.0,0.0,0.0,1.21846967915e-07,-0.2353596,0.59820565,9.52225715,9e-08,0.0,0.0,0.0,9e-08,0.0,0.0,0.0,9e-08
1783583861669435069,3716,1783583861669435069,base_link,0.00100877123486,0.0143445124505,-0.997730398313,-0.0657819855732,1.0,0.0,0.0,0.0,1.0,0.0,0.0,0.0,1.0,0.0621930286288,-0.00820870976895,-0.282053828239,1.21846967915e-07,0.0,0.0,0.0,1.21846967915e-07,0.0,0.0,0.0,1.21846967915e-07,-0.2353596,0.59820565,9.52225715,9e-08,0.0,0.0,0.0,9e-08,0.0,0.0,0.0,9e-08
1783583861669435069,3716,1783583861669435069,base_link,0.00100877123486,0.0143445124505,-0.997730398313,-0.0657819855732,1.0,0.0,0.0,0.0,1.0,0.0,0.0,0.0,1.0,0.0621930286288,-0.00820870976895,-0.282053828239,1.21846967915e-07,0.0,0.0,0.0,1.21846967915e-07,0.0,0.0,0.0,1.21846967915e-07,-0.2353596,0.59820565,9.52225715,9e-08,0.0,0.0,0.0,9e-08,0.0,0.0,0.0,9e-08
1783583861669435069,3716,1783583861669435069,base_link,0.00100877123486,0.0143445124505,-0.997730398313,-0.0657819855732,1.0,0.0,0.0,0.0,1.0,0.0,0.0,0.0,1.0,0.0621930286288,-0.00820870976895,-0.282053828239,1.21846967915e-07,0.0,0.0,0.0,1.21846967915e-07,0.0,0.0,0.0,1.21846967915e-07,-0.2353596,0.59820565,9.52225715,9e-08,0.0,0.0,0.0,9e-08,0.0,0.0,0.0,9e-08
1783583861669435069,3716,1783583861669435069,base_link,0.00100877123486,0.0143445124505,-0.997730398313,-0.0657819855732,1.0,0.0,0.0,0.0,1.0,0.0,0.0,0.0,1.0,0.0621930286288,-0.00820870976895,-0.282053828239,1.21846967915e-07,0.0,0.0,0.0,1.21846967915e-07,0.0,0.0,0.0,1.21846967915e-07,-0.2353596,0.59820565,9.52225715,9e-08,0.0,0.0,0.0,9e-08,0.0,0.0,0.0,9e-08
1783583861669435069,3716,1783583861669435069,base_link,0.00100877123486,0.0143445124505,-0.997730398313,-0.0657819855732,1.0,0.0,0.0,0.0,1.0,0.0,0.0,0.0,1.0,0.0621930286288,-0.00820870976895,-0.282053828239,1.21846967915e-07,0.0,0.0,0.0,1.21846967915e-07,0.0,0.0,0.0,1.21846967915e-07,-0.2353596,0.59820565,9.52225715,9e-08,0.0,0.0,0.0,9e-08,0.0,0.0,0.0,9e-08
1783583861669435069,3716,1783583861669435069,base_link,0.00100877123486,0.0143445124505,-0.997730398313,-0.0657819855732,1.0,0.0,0.0,0.0,1.0,0.0,0.0,0.0,1.0,0.0621930286288,-0.00820870976895,-0.282053828239,1.21846967915e-07,0.0,0.0,0.0,1.21846967915e-07,0.0,0.0,0.0,1.21846967915e-07,-0.2353596,0.59820565,9.52225715,9e-08,0.0,0.0,0.0,9e-08,0.0,0.0,0.0,9e-08
1783583861669435069,3716,1783583861669435069,base_link,0.00100877123486,0.0143445124505,-0.997730398313,-0.0657819855732,1.0,0.0,0.0,0.0,1.0,0.0,0.0,0.0,1.0,0.0621930286288,-0.00820870976895,-0.282053828239,1.21846967915e-07,0.0,0.0,0.0,1.21846967915e-07,0.0,0.0,0.0,1.21846967915e-07,-0.2353596,0.59820565,9.52225715,9e-08,0.0,0.0,0.0,9e-08,0.0,0.0,0.0,9e-08
1783583861669435069,3716,1783583861669435069,base_link,0.00100877123486,0.0143445124505,-0.997730398313,-0.0657819855732,1.0,0.0,0.0,0.0,1.0,0.0,0.0,0.0,1.0,0.0621930286288,-0.00820870976895,-0.282053828239,1.21846967915e-07,0.0,0.0,0.0,1.21846967915e-07,0.0,0.0,0.0,1.21846967915e-07,-0.2353596,0.59820565,9.52225715,9e-08,0.0,0.0,0.0,9e-08,0.0,0.0,0.0,9e-08
1783583861669435069,3716,1783583861669435069,base_link,0.00100877123486,0.0143445124505,-0.997730398313,-0.0657819855732,1.0,0.0,0.0,0.0,1.0,0.0,0.0,0.0,1.0,0.0621930286288,-0.00820870976895,-0.282053828239,1.21846967915e-07,0.0,0.0,0.0,1.21846967915e-07,0.0,0.0,0.0,1.21846967915e-07,-0.2353596,0.59820565,9.52225715,9e-08,0.0,0.0,0.0,9e-08,0.0,0.0,0.0,9e-08
1783583861928436349,3717,1783583861928436349,base_link,0.00219442133722,0.0223604568906,-0.998870316058,-0.0418722602857,1.0,0.0,0.0,0.0,1.0,0.0,0.0,0.0,1.0,0.0215007793158,0.00566089339554,-0.0232223346829,1.21846967915e-07,0.0,0.0,0.0,1.21846967915e-07,0.0,0.0,0.0,1.21846967915e-07,-0.2353596,0.59820565,9.52225715,9e-08,0.0,0.0,0.0,9e-08,0.0,0.0,0.0,9e-08
1783583861928436349,3717,1783583861928436349,base_link,0.00219442133722,0.0223604568906,-0.998870316058,-0.0418722602857,1.0,0.0,0.0,0.0,1.0,0.0,0.0,0.0,1.0,0.0215007793158,0.00566089339554,-0.0232223346829,1.21846967915e-07,0.0,0.0,0.0,1.21846967915e-07,0.0,0.0,0.0,1.21846967915e-07,-0.2353596,0.59820565,9.52225715,9e-08,0.0,0.0,0.0,9e-08,0.0,0.0,0.0,9e-08
1783583861928436349,3717,1783583861928436349,base_link,0.00219442133722,0.0223604568906,-0.998870316058,-0.0418722602857,1.0,0.0,0.0,0.0,1.0,0.0,0.0,0.0,1.0,0.0215007793158,0.00566089339554,-0.0232223346829,1.21846967915e-07,0.0,0.0,0.0,1.21846967915e-07,0.0,0.0,0.0,1.21846967915e-07,-0.2353596,0.59820565,9.52225715,9e-08,0.0,0.0,0.0,9e-08,0.0,0.0,0.0,9e-08
1783583861928436349,3717,1783583861928436349,base_link,0.00219442133722,0.0223604568906,-0.998870316058,-0.0418722602857,1.0,0.0,0.0,0.0,1.0,0.0,0.0,0.0,1.0,0.0215007793158,0.00566089339554,-0.0232223346829,1.21846967915e-07,0.0,0.0,0.0,1.21846967915e-07,0.0,0.0,0.0,1.21846967915e-07,-0.2353596,0.59820565,9.52225715,9e-08,0.0,0.0,0.0,9e-08,0.0,0.0,0.0,9e-08
1783583861928436349,3717,1783583861928436349,base_link,0.00219442133722,0.0223604568906,-0.998870316058,-0.0418722602857,1.0,0.0,0.0,0.0,1.0,0.0,0.0,0.0,1.0,0.0215007793158,0.00566089339554,-0.0232223346829,1.21846967915e-07,0.0,0.0,0.0,1.21846967915e-07,0.0,0.0,0.0,1.21846967915e-07,-0.2353596,0.59820565,9.52225715,9e-08,0.0,0.0,0.0,9e-08,0.0,0.0,0.0,9e-08
1783583861928436349,3717,1783583861928436349,base_link,0.00219442133722,0.0223604568906,-0.998870316058,-0.0418722602857,1.0,0.0,0.0,0.0,1.0,0.0,0.0,0.0,1.0,0.0215007793158,0.00566089339554,-0.0232223346829,1.21846967915e-07,0.0,0.0,0.0,1.21846967915e-07,0.0,0.0,0.0,1.21846967915e-07,-0.2353596,0.59820565,9.52225715,9e-08,0.0,0.0,0.0,9e-08,0.0,0.0,0.0,9e-08
1783583861928436349,3717,1783583861928436349,base_link,0.00219442133722,0.0223604568906,-0.998870316058,-0.0418722602857,1.0,0.0,0.0,0.0,1.0,0.0,0.0,0.0,1.0,0.0215007793158,0.00566089339554,-0.0232223346829,1.21846967915e-07,0.0,0.0,0.0,1.21846967915e-07,0.0,0.0,0.0,1.21846967915e-07,-0.2353596,0.59820565,9.52225715,9e-08,0.0,0.0,0.0,9e-08,0.0,0.0,0.0,9e-08
1783583861928436349,3717,1783583861928436349,base_link,0.00219442133722,0.0223604568906,-0.998870316058,-0.0418722602857,1.0,0.0,0.0,0.0,1.0,0.0,0.0,0.0,1.0,0.0215007793158,0.00566089339554,-0.0232223346829,1.21846967915e-07,0.0,0.0,0.0,1.21846967915e-07,0.0,0.0,0.0,1.21846967915e-07,-0.2353596,0.59820565,9.52225715,9e-08,0.0,0.0,0.0,9e-08,0.0,0.0,0.0,9e-08
1783583861928436349,3717,1783583861928436349,base_link,0.00219442133722,0.0223604568906,-0.998870316058,-0.0418722602857,1.0,0.0,0.0,0.0,1.0,0.0,0.0,0.0,1.0,0.0215007793158,0.00566089339554,-0.0232223346829,1.21846967915e-07,0.0,0.0,0.0,1.21846967915e-07,0.0,0.0,0.0,1.21846967915e-07,-0.2353596,0.59820565,9.52225715,9e-08,0.0,0.0,0.0,9e-08,0.0,0.0,0.0,9e-08
1783583861928436349,3717,1783583861928436349,base_link,0.00219442133722,0.0223604568906,-0.998870316058,-0.0418722602857,1.0,0.0,0.0,0.0,1.0,0.0,0.0,0.0,1.0,0.0215007793158,0.00566089339554,-0.0232223346829,1.21846967915e-07,0.0,0.0,0.0,1.21846967915e-07,0.0,0.0,0.0,1.21846967915e-07,-0.2353596,0.59820565,9.52225715,9e-08,0.0,0.0,0.0,9e-08,0.0,0.0,0.0,9e-08
1783583861928436349,3717,1783583861928436349,base_link,0.00219442133722,0.0223604568906,-0.998870316058,-0.0418722602857,1.0,0.0,0.0,0.0,1.0,0.0,0.0,0.0,1.0,0.0215007793158,0.00566089339554,-0.0232223346829,1.21846967915e-07,0.0,0.0,0.0,1.21846967915e-07,0.0,0.0,0.0,1.21846967915e-07,-0.2353596,0.59820565,9.52225715,9e-08,0.0,0.0,0.0,9e-08,0.0,0.0,0.0,9e-08
1783583861928436349,3717,1783583861928436349,base_link,0.00219442133722,0.0223604568906,-0.998870316058,-0.0418722602857,1.0,0.0,0.0,0.0,1.0,0.0,0.0,0.0,1.0,0.0215007793158,0.00566089339554,-0.0232223346829,1.21846967915e-07,0.0,0.0,0.0,1.21846967915e-07,0.0,0.0,0.0,1.21846967915e-07,-0.2353596,0.59820565,9.52225715,9e-08,0.0,0.0,0.0,9e-08,0.0,0.0,0.0,9e-08
1783583861928436349,3717,1783583861928436349,base_link,0.00219442133722,0.0223604568906,-0.998870316058,-0.0418722602857,1.0,0.0,0.0,0.0,1.0,0.0,0.0,0.0,1.0,0.0215007793158,0.00566089339554,-0.0232223346829,1.21846967915e-07,0.0,0.0,0.0,1.21846967915e-07,0.0,0.0,0.0,1.21846967915e-07,-0.2353596,0.59820565,9.52225715,9e-08,0.0,0.0,0.0,9e-08,0.0,0.0,0.0,9e-08
1783583861928436349,3717,1783583861928436349,base_link,0.00219442133722,0.0223604568906,-0.998870316058,-0.0418722602857,1.0,0.0,0.0,0.0,1.0,0.0,0.0,0.0,1.0,0.0215007793158,0.00566089339554,-0.0232223346829,1.21846967915e-07,0.0,0.0,0.0,1.21846967915e-07,0.0,0.0,0.0,1.21846967915e-07,-0.2353596,0.59820565,9.52225715,9e-08,0.0,0.0,0.0,9e-08,0.0,0.0,0.0,9e-08
1783583861928436349,3717,1783583861928436349,base_link,0.00219442133722,0.0223604568906,-0.998870316058,-0.0418722602857,1.0,0.0,0.0,0.0,1.0,0.0,0.0,0.0,1.0,0.0215007793158,0.00566089339554,-0.0232223346829,1.21846967915e-07,0.0,0.0,0.0,1.21846967915e-07,0.0,0.0,0.0,1.21846967915e-07,-0.2353596,0.59820565,9.52225715,9e-08,0.0,0.0,0.0,9e-08,0.0,0.0,0.0,9e-08
1783583861928436349,3717,1783583861928436349,base_link,0.00219442133722,0.0223604568906,-0.998870316058,-0.0418722602857,1.0,0.0,0.0,0.0,1.0,0.0,0.0,0.0,1.0,0.0215007793158,0.00566089339554,-0.0232223346829,1.21846967915e-07,0.0,0.0,0.0,1.21846967915e-07,0.0,0.0,0.0,1.21846967915e-07,-0.2353596,0.59820565,9.52225715,9e-08,0.0,0.0,0.0,9e-08,0.0,0.0,0.0,9e-08
1783583861928436349,3717,1783583861928436349,base_link,0.00219442133722,0.0223604568906,-0.998870316058,-0.0418722602857,1.0,0.0,0.0,0.0,1.0,0.0,0.0,0.0,1.0,0.0215007793158,0.00566089339554,-0.0232223346829,1.21846967915e-07,0.0,0.0,0.0,1.21846967915e-07,0.0,0.0,0.0,1.21846967915e-07,-0.2353596,0.59820565,9.52225715,9e-08,0.0,0.0,0.0,9e-08,0.0,0.0,0.0,9e-08
1783583861928436349,3717,1783583861928436349,base_link,0.00219442133722,0.0223604568906,-0.998870316058,-0.0418722602857,1.0,0.0,0.0,0.0,1.0,0.0,0.0,0.0,1.0,0.0215007793158,0.00566089339554,-0.0232223346829,1.21846967915e-07,0.0,0.0,0.0,1.21846967915e-07,0.0,0.0,0.0,1.21846967915e-07,-0.2353596,0.59820565,9.52225715,9e-08,0.0,0.0,0.0,9e-08,0.0,0.0,0.0,9e-08
1783583861928436349,3717,1783583861928436349,base_link,0.00219442133722,0.0223604568906,-0.998870316058,-0.0418722602857,1.0,0.0,0.0,0.0,1.0,0.0,0.0,0.0,1.0,0.0215007793158,0.00566089339554,-0.0232223346829,1.21846967915e-07,0.0,0.0,0.0,1.21846967915e-07,0.0,0.0,0.0,1.21846967915e-07,-0.2353596,0.59820565,9.52225715,9e-08,0.0,0.0,0.0,9e-08,0.0,0.0,0.0,9e-08
1783583861928436349,3717,1783583861928436349,base_link,0.00219442133722,0.0223604568906,-0.998870316058,-0.0418722602857,1.0,0.0,0.0,0.0,1.0,0.0,0.0,0.0,1.0,0.0215007793158,0.00566089339554,-0.0232223346829,1.21846967915e-07,0.0,0.0,0.0,1.21846967915e-07,0.0,0.0,0.0,1.21846967915e-07,-0.2353596,0.59820565,9.52225715,9e-08,0.0,0.0,0.0,9e-08,0.0,0.0,0.0,9e-08
1783583861928436349,3717,1783583861928436349,base_link,0.00219442133722,0.0223604568906,-0.998870316058,-0.0418722602857,1.0,0.0,0.0,0.0,1.0,0.0,0.0,0.0,1.0,0.0215007793158,0.00566089339554,-0.0232223346829,1.21846967915e-07,0.0,0.0,0.0,1.21846967915e-07,0.0,0.0,0.0,1.21846967915e-07,-0.2353596,0.59820565,9.52225715,9e-08,0.0,0.0,0.0,9e-08,0.0,0.0,0.0,9e-08
1783583861928436349,3717,1783583861928436349,base_link,0.00219442133722,0.0223604568906,-0.998870316058,-0.0418722602857,1.0,0.0,0.0,0.0,1.0,0.0,0.0,0.0,1.0,0.0215007793158,0.00566089339554,-0.0232223346829,1.21846967915e-07,0.0,0.0,0.0,1.21846967915e-07,0.0,0.0,0.0,1.21846967915e-07,-0.2353596,0.59820565,9.52225715,9e-08,0.0,0.0,0.0,9e-08,0.0,0.0,0.0,9e-08
1783583861928436349,3717,1783583861928436349,base_link,0.00219442133722,0.0223604568906,-0.998870316058,-0.0418722602857,1.0,0.0,0.0,0.0,1.0,0.0,0.0,0.0,1.0,0.0215007793158,0.00566089339554,-0.0232223346829,1.21846967915e-07,0.0,0.0,0.0,1.21846967915e-07,0.0,0.0,0.0,1.21846967915e-07,-0.2353596,0.59820565,9.52225715,9e-08,0.0,0.0,0.0,9e-08,0.0,0.0,0.0,9e-08
1783583861928436349,3717,1783583861928436349,base_link,0.00219442133722,0.0223604568906,-0.998870316058,-0.0418722602857,1.0,0.0,0.0,0.0,1.0,0.0,0.0,0.0,1.0,0.0215007793158,0.00566089339554,-0.0232223346829,1.21846967915e-07,0.0,0.0,0.0,1.21846967915e-07,0.0,0.0,0.0,1.21846967915e-07,-0.2353596,0.59820565,9.52225715,9e-08,0.0,0.0,0.0,9e-08,0.0,0.0,0.0,9e-08
1783583862169274151,3718,1783583862169274151,base_link,0.00233193493363,0.0203653293732,-0.999041954457,-0.038665083399,1.0,0.0,0.0,0.0,1.0,0.0,0.0,0.0,1.0,-0.0763313025236,-9.48067754507e-05,0.328595578671,1.21846967915e-07,0.0,0.0,0.0,1.21846967915e-07,0.0,0.0,0.0,1.21846967915e-07,-0.1176798,-0.4511059,9.60071035,9e-08,0.0,0.0,0.0,9e-08,0.0,0.0,0.0,9e-08
1783583862169274151,3718,1783583862169274151,base_link,0.00233193493363,0.0203653293732,-0.999041954457,-0.038665083399,1.0,0.0,0.0,0.0,1.0,0.0,0.0,0.0,1.0,-0.0763313025236,-9.48067754507e-05,0.328595578671,1.21846967915e-07,0.0,0.0,0.0,1.21846967915e-07,0.0,0.0,0.0,1.21846967915e-07,-0.1176798,-0.4511059,9.60071035,9e-08,0.0,0.0,0.0,9e-08,0.0,0.0,0.0,9e-08
1783583862169274151,3718,1783583862169274151,base_link,0.00233193493363,0.0203653293732,-0.999041954457,-0.038665083399,1.0,0.0,0.0,0.0,1.0,0.0,0.0,0.0,1.0,-0.0763313025236,-9.48067754507e-05,0.328595578671,1.21846967915e-07,0.0,0.0,0.0,1.21846967915e-07,0.0,0.0,0.0,1.21846967915e-07,-0.1176798,-0.4511059,9.60071035,9e-08,0.0,0.0,0.0,9e-08,0.0,0.0,0.0,9e-08
1783583862169274151,3718,1783583862169274151,base_link,0.00233193493363,0.0203653293732,-0.999041954457,-0.038665083399,1.0,0.0,0.0,0.0,1.0,0.0,0.0,0.0,1.0,-0.0763313025236,-9.48067754507e-05,0.328595578671,1.21846967915e-07,0.0,0.0,0.0,1.21846967915e-07,0.0,0.0,0.0,1.21846967915e-07,-0.1176798,-0.4511059,9.60071035,9e-08,0.0,0.0,0.0,9e-08,0.0,0.0,0.0,9e-08
1783583862169274151,3718,1783583862169274151,base_link,0.00233193493363,0.0203653293732,-0.999041954457,-0.038665083399,1.0,0.0,0.0,0.0,1.0,0.0,0.0,0.0,1.0,-0.0763313025236,-9.48067754507e-05,0.328595578671,1.21846967915e-07,0.0,0.0,0.0,1.21846967915e-07,0.0,0.0,0.0,1.21846967915e-07,-0.1176798,-0.4511059,9.60071035,9e-08,0.0,0.0,0.0,9e-08,0.0,0.0,0.0,9e-08
1783583862169274151,3718,1783583862169274151,base_link,0.00233193493363,0.0203653293732,-0.999041954457,-0.038665083399,1.0,0.0,0.0,0.0,1.0,0.0,0.0,0.0,1.0,-0.0763313025236,-9.48067754507e-05,0.328595578671,1.21846967915e-07,0.0,0.0,0.0,1.21846967915e-07,0.0,0.0,0.0,1.21846967915e-07,-0.1176798,-0.4511059,9.60071035,9e-08,0.0,0.0,0.0,9e-08,0.0,0.0,0.0,9e-08
1783583862169274151,3718,1783583862169274151,base_link,0.00233193493363,0.0203653293732,-0.999041954457,-0.038665083399,1.0,0.0,0.0,0.0,1.0,0.0,0.0,0.0,1.0,-0.0763313025236,-9.48067754507e-05,0.328595578671,1.21846967915e-07,0.0,0.0,0.0,1.21846967915e-07,0.0,0.0,0.0,1.21846967915e-07,-0.1176798,-0.4511059,9.60071035,9e-08,0.0,0.0,0.0,9e-08,0.0,0.0,0.0,9e-08
1783583862169274151,3718,1783583862169274151,base_link,0.00233193493363,0.0203653293732,-0.999041954457,-0.038665083399,1.0,0.0,0.0,0.0,1.0,0.0,0.0,0.0,1.0,-0.0763313025236,-9.48067754507e-05,0.328595578671,1.21846967915e-07,0.0,0.0,0.0,1.21846967915e-07,0.0,0.0,0.0,1.21846967915e-07,-0.1176798,-0.4511059,9.60071035,9e-08,0.0,0.0,0.0,9e-08,0.0,0.0,0.0,9e-08
1783583862169274151,3718,1783583862169274151,base_link,0.00233193493363,0.0203653293732,-0.999041954457,-0.038665083399,1.0,0.0,0.0,0.0,1.0,0.0,0.0,0.0,1.0,-0.0763313025236,-9.48067754507e-05,0.328595578671,1.21846967915e-07,0.0,0.0,0.0,1.21846967915e-07,0.0,0.0,0.0,1.21846967915e-07,-0.1176798,-0.4511059,9.60071035,9e-08,0.0,0.0,0.0,9e-08,0.0,0.0,0.0,9e-08
1783583862169274151,3718,1783583862169274151,base_link,0.00233193493363,0.0203653293732,-0.999041954457,-0.038665083399,1.0,0.0,0.0,0.0,1.0,0.0,0.0,0.0,1.0,-0.0763313025236,-9.48067754507e-05,0.328595578671,1.21846967915e-07,0.0,0.0,0.0,1.21846967915e-07,0.0,0.0,0.0,1.21846967915e-07,-0.1176798,-0.4511059,9.60071035,9e-08,0.0,0.0,0.0,9e-08,0.0,0.0,0.0,9e-08
1783583862169274151,3718,1783583862169274151,base_link,0.00233193493363,0.0203653293732,-0.999041954457,-0.038665083399,1.0,0.0,0.0,0.0,1.0,0.0,0.0,0.0,1.0,-0.0763313025236,-9.48067754507e-05,0.328595578671,1.21846967915e-07,0.0,0.0,0.0,1.21846967915e-07,0.0,0.0,0.0,1.21846967915e-07,-0.1176798,-0.4511059,9.60071035,9e-08,0.0,0.0,0.0,9e-08,0.0,0.0,0.0,9e-08
1783583862169274151,3718,1783583862169274151,base_link,0.00233193493363,0.0203653293732,-0.999041954457,-0.038665083399,1.0,0.0,0.0,0.0,1.0,0.0,0.0,0.0,1.0,-0.0763313025236,-9.48067754507e-05,0.328595578671,1.21846967915e-07,0.0,0.0,0.0,1.21846967915e-07,0.0,0.0,0.0,1.21846967915e-07,-0.1176798,-0.4511059,9.60071035,9e-08,0.0,0.0,0.0,9e-08,0.0,0.0,0.0,9e-08
1783583862169274151,3718,1783583862169274151,base_link,0.00233193493363,0.0203653293732,-0.999041954457,-0.038665083399,1.0,0.0,0.0,0.0,1.0,0.0,0.0,0.0,1.0,-0.0763313025236,-9.48067754507e-05,0.328595578671,1.21846967915e-07,0.0,0.0,0.0,1.21846967915e-07,0.0,0.0,0.0,1.21846967915e-07,-0.1176798,-0.4511059,9.60071035,9e-08,0.0,0.0,0.0,9e-08,0.0,0.0,0.0,9e-08
1783583862169274151,3718,1783583862169274151,base_link,0.00233193493363,0.0203653293732,-0.999041954457,-0.038665083399,1.0,0.0,0.0,0.0,1.0,0.0,0.0,0.0,1.0,-0.0763313025236,-9.48067754507e-05,0.328595578671,1.21846967915e-07,0.0,0.0,0.0,1.21846967915e-07,0.0,0.0,0.0,1.21846967915e-07,-0.1176798,-0.4511059,9.60071035,9e-08,0.0,0.0,0.0,9e-08,0.0,0.0,0.0,9e-08
1783583862169274151,3718,1783583862169274151,base_link,0.00233193493363,0.0203653293732,-0.999041954457,-0.038665083399,1.0,0.0,0.0,0.0,1.0,0.0,0.0,0.0,1.0,-0.0763313025236,-9.48067754507e-05,0.328595578671,1.21846967915e-07,0.0,0.0,0.0,1.21846967915e-07,0.0,0.0,0.0,1.21846967915e-07,-0.1176798,-0.4511059,9.60071035,9e-08,0.0,0.0,0.0,9e-08,0.0,0.0,0.0,9e-08
1783583862169274151,3718,1783583862169274151,base_link,0.00233193493363,0.0203653293732,-0.999041954457,-0.038665083399,1.0,0.0,0.0,0.0,1.0,0.0,0.0,0.0,1.0,-0.0763313025236,-9.48067754507e-05,0.328595578671,1.21846967915e-07,0.0,0.0,0.0,1.21846967915e-07,0.0,0.0,0.0,1.21846967915e-07,-0.1176798,-0.4511059,9.60071035,9e-08,0.0,0.0,0.0,9e-08,0.0,0.0,0.0,9e-08
1783583862169274151,3718,1783583862169274151,base_link,0.00233193493363,0.0203653293732,-0.999041954457,-0.038665083399,1.0,0.0,0.0,0.0,1.0,0.0,0.0,0.0,1.0,-0.0763313025236,-9.48067754507e-05,0.328595578671,1.21846967915e-07,0.0,0.0,0.0,1.21846967915e-07,0.0,0.0,0.0,1.21846967915e-07,-0.1176798,-0.4511059,9.60071035,9e-08,0.0,0.0,0.0,9e-08,0.0,0.0,0.0,9e-08
1783583862169274151,3718,1783583862169274151,base_link,0.00233193493363,0.0203653293732,-0.999041954457,-0.038665083399,1.0,0.0,0.0,0.0,1.0,0.0,0.0,0.0,1.0,-0.0763313025236,-9.48067754507e-05,0.328595578671,1.21846967915e-07,0.0,0.0,0.0,1.21846967915e-07,0.0,0.0,0.0,1.21846967915e-07,-0.1176798,-0.4511059,9.60071035,9e-08,0.0,0.0,0.0,9e-08,0.0,0.0,0.0,9e-08
1783583862169274151,3718,1783583862169274151,base_link,0.00233193493363,0.0203653293732,-0.999041954457,-0.038665083399,1.0,0.0,0.0,0.0,1.0,0.0,0.0,0.0,1.0,-0.0763313025236,-9.48067754507e-05,0.328595578671,1.21846967915e-07,0.0,0.0,0.0,1.21846967915e-07,0.0,0.0,0.0,1.21846967915e-07,-0.1176798,-0.4511059,9.60071035,9e-08,0.0,0.0,0.0,9e-08,0.0,0.0,0.0,9e-08
1783583862169274151,3718,1783583862169274151,base_link,0.00233193493363,0.0203653293732,-0.999041954457,-0.038665083399,1.0,0.0,0.0,0.0,1.0,0.0,0.0,0.0,1.0,-0.0763313025236,-9.48067754507e-05,0.328595578671,1.21846967915e-07,0.0,0.0,0.0,1.21846967915e-07,0.0,0.0,0.0,1.21846967915e-07,-0.1176798,-0.4511059,9.60071035,9e-08,0.0,0.0,0.0,9e-08,0.0,0.0,0.0,9e-08
1783583862169274151,3718,1783583862169274151,base_link,0.00233193493363,0.0203653293732,-0.999041954457,-0.038665083399,1.0,0.0,0.0,0.0,1.0,0.0,0.0,0.0,1.0,-0.0763313025236,-9.48067754507e-05,0.328595578671,1.21846967915e-07,0.0,0.0,0.0,1.21846967915e-07,0.0,0.0,0.0,1.21846967915e-07,-0.1176798,-0.4511059,9.60071035,9e-08,0.0,0.0,0.0,9e-08,0.0,0.0,0.0,9e-08
1783583862169274151,3718,1783583862169274151,base_link,0.00233193493363,0.0203653293732,-0.999041954457,-0.038665083399,1.0,0.0,0.0,0.0,1.0,0.0,0.0,0.0,1.0,-0.0763313025236,-9.48067754507e-05,0.328595578671,1.21846967915e-07,0.0,0.0,0.0,1.21846967915e-07,0.0,0.0,0.0,1.21846967915e-07,-0.1176798,-0.4511059,9.60071035,9e-08,0.0,0.0,0.0,9e-08,0.0,0.0,0.0,9e-08
1783583862169274151,3718,1783583862169274151,base_link,0.00233193493363,0.0203653293732,-0.999041954457,-0.038665083399,1.0,0.0,0.0,0.0,1.0,0.0,0.0,0.0,1.0,-0.0763313025236,-9.48067754507e-05,0.328595578671,1.21846967915e-07,0.0,0.0,0.0,1.21846967915e-07,0.0,0.0,0.0,1.21846967915e-07,-0.1176798,-0.4511059,9.60071035,9e-08,0.0,0.0,0.0,9e-08,0.0,0.0,0.0,9e-08
1783583862169274151,3718,1783583862169274151,base_link,0.00233193493363,0.0203653293732,-0.999041954457,-0.038665083399,1.0,0.0,0.0,0.0,1.0,0.0,0.0,0.0,1.0,-0.0763313025236,-9.48067754507e-05,0.328595578671,1.21846967915e-07,0.0,0.0,0.0,1.21846967915e-07,0.0,0.0,0.0,1.21846967915e-07,-0.1176798,-0.4511059,9.60071035,9e-08,0.0,0.0,0.0,9e-08,0.0,0.0,0.0,9e-08
1783583862169274151,3718,1783583862169274151,base_link,0.00233193493363,0.0203653293732,-0.999041954457,-0.038665083399,1.0,0.0,0.0,0.0,1.0,0.0,0.0,0.0,1.0,-0.0763313025236,-9.48067754507e-05,0.328595578671,1.21846967915e-07,0.0,0.0,0.0,1.21846967915e-07,0.0,0.0,0.0,1.21846967915e-07,-0.1176798,-0.4511059,9.60071035,9e-08,0.0,0.0,0.0,9e-08,0.0,0.0,0.0,9e-08
1783583862169274151,3718,1783583862169274151,base_link,0.00233193493363,0.0203653293732,-0.999041954457,-0.038665083399,1.0,0.0,0.0,0.0,1.0,0.0,0.0,0.0,1.0,-0.0763313025236,-9.48067754507e-05,0.328595578671,1.21846967915e-07,0.0,0.0,0.0,1.21846967915e-07,0.0,0.0,0.0,1.21846967915e-07,-0.1176798,-0.4511059,9.60071035,9e-08,0.0,0.0,0.0,9e-08,0.0,0.0,0.0,9e-08
1783583862428276967,3719,1783583862428276967,base_link,0.0018098083537,0.0176127625943,-0.998700731485,-0.0477845594257,1.0,0.0,0.0,0.0,1.0,0.0,0.0,0.0,1.0,0.0942261964083,-0.00254968320951,-0.303660869598,1.21846967915e-07,0.0,0.0,0.0,1.21846967915e-07,0.0,0.0,0.0,1.21846967915e-07,-0.1176798,-0.4511059,9.60071035,9e-08,0.0,0.0,0.0,9e-08,0.0,0.0,0.0,9e-08
1783583862428276967,3719,1783583862428276967,base_link,0.0018098083537,0.0176127625943,-0.998700731485,-0.0477845594257,1.0,0.0,0.0,0.0,1.0,0.0,0.0,0.0,1.0,0.0942261964083,-0.00254968320951,-0.303660869598,1.21846967915e-07,0.0,0.0,0.0,1.21846967915e-07,0.0,0.0,0.0,1.21846967915e-07,-0.1176798,-0.4511059,9.60071035,9e-08,0.0,0.0,0.0,9e-08,0.0,0.0,0.0,9e-08
1783583862428276967,3719,1783583862428276967,base_link,0.0018098083537,0.0176127625943,-0.998700731485,-0.0477845594257,1.0,0.0,0.0,0.0,1.0,0.0,0.0,0.0,1.0,0.0942261964083,-0.00254968320951,-0.303660869598,1.21846967915e-07,0.0,0.0,0.0,1.21846967915e-07,0.0,0.0,0.0,1.21846967915e-07,-0.1176798,-0.4511059,9.60071035,9e-08,0.0,0.0,0.0,9e-08,0.0,0.0,0.0,9e-08
1783583862428276967,3719,1783583862428276967,base_link,0.0018098083537,0.0176127625943,-0.998700731485,-0.0477845594257,1.0,0.0,0.0,0.0,1.0,0.0,0.0,0.0,1.0,0.0942261964083,-0.00254968320951,-0.303660869598,1.21846967915e-07,0.0,0.0,0.0,1.21846967915e-07,0.0,0.0,0.0,1.21846967915e-07,-0.1176798,-0.4511059,9.60071035,9e-08,0.0,0.0,0.0,9e-08,0.0,0.0,0.0,9e-08
1783583862428276967,3719,1783583862428276967,base_link,0.0018098083537,0.0176127625943,-0.998700731485,-0.0477845594257,1.0,0.0,0.0,0.0,1.0,0.0,0.0,0.0,1.0,0.0942261964083,-0.00254968320951,-0.303660869598,1.21846967915e-07,0.0,0.0,0.0,1.21846967915e-07,0.0,0.0,0.0,1.21846967915e-07,-0.1176798,-0.4511059,9.60071035,9e-08,0.0,0.0,0.0,9e-08,0.0,0.0,0.0,9e-08
1783583862428276967,3719,1783583862428276967,base_link,0.0018098083537,0.0176127625943,-0.998700731485,-0.0477845594257,1.0,0.0,0.0,0.0,1.0,0.0,0.0,0.0,1.0,0.0942261964083,-0.00254968320951,-0.303660869598,1.21846967915e-07,0.0,0.0,0.0,1.21846967915e-07,0.0,0.0,0.0,1.21846967915e-07,-0.1176798,-0.4511059,9.60071035,9e-08,0.0,0.0,0.0,9e-08,0.0,0.0,0.0,9e-08
1783583862428276967,3719,1783583862428276967,base_link,0.0018098083537,0.0176127625943,-0.998700731485,-0.0477845594257,1.0,0.0,0.0,0.0,1.0,0.0,0.0,0.0,1.0,0.0942261964083,-0.00254968320951,-0.303660869598,1.21846967915e-07,0.0,0.0,0.0,1.21846967915e-07,0.0,0.0,0.0,1.21846967915e-07,-0.1176798,-0.4511059,9.60071035,9e-08,0.0,0.0,0.0,9e-08,0.0,0.0,0.0,9e-08
1783583862428276967,3719,1783583862428276967,base_link,0.0018098083537,0.0176127625943,-0.998700731485,-0.0477845594257,1.0,0.0,0.0,0.0,1.0,0.0,0.0,0.0,1.0,0.0942261964083,-0.00254968320951,-0.303660869598,1.21846967915e-07,0.0,0.0,0.0,1.21846967915e-07,0.0,0.0,0.0,1.21846967915e-07,-0.1176798,-0.4511059,9.60071035,9e-08,0.0,0.0,0.0,9e-08,0.0,0.0,0.0,9e-08
1783583862428276967,3719,1783583862428276967,base_link,0.0018098083537,0.0176127625943,-0.998700731485,-0.0477845594257,1.0,0.0,0.0,0.0,1.0,0.0,0.0,0.0,1.0,0.0942261964083,-0.00254968320951,-0.303660869598,1.21846967915e-07,0.0,0.0,0.0,1.21846967915e-07,0.0,0.0,0.0,1.21846967915e-07,-0.1176798,-0.4511059,9.60071035,9e-08,0.0,0.0,0.0,9e-08,0.0,0.0,0.0,9e-08
1783583862428276967,3719,1783583862428276967,base_link,0.0018098083537,0.0176127625943,-0.998700731485,-0.0477845594257,1.0,0.0,0.0,0.0,1.0,0.0,0.0,0.0,1.0,0.0942261964083,-0.00254968320951,-0.303660869598,1.21846967915e-07,0.0,0.0,0.0,1.21846967915e-07,0.0,0.0,0.0,1.21846967915e-07,-0.1176798,-0.4511059,9.60071035,9e-08,0.0,0.0,0.0,9e-08,0.0,0.0,0.0,9e-08
1783583862428276967,3719,1783583862428276967,base_link,0.0018098083537,0.0176127625943,-0.998700731485,-0.0477845594257,1.0,0.0,0.0,0.0,1.0,0.0,0.0,0.0,1.0,0.0942261964083,-0.00254968320951,-0.303660869598,1.21846967915e-07,0.0,0.0,0.0,1.21846967915e-07,0.0,0.0,0.0,1.21846967915e-07,-0.1176798,-0.4511059,9.60071035,9e-08,0.0,0.0,0.0,9e-08,0.0,0.0,0.0,9e-08
1783583862428276967,3719,1783583862428276967,base_link,0.0018098083537,0.0176127625943,-0.998700731485,-0.0477845594257,1.0,0.0,0.0,0.0,1.0,0.0,0.0,0.0,1.0,0.0942261964083,-0.00254968320951,-0.303660869598,1.21846967915e-07,0.0,0.0,0.0,1.21846967915e-07,0.0,0.0,0.0,1.21846967915e-07,-0.1176798,-0.4511059,9.60071035,9e-08,0.0,0.0,0.0,9e-08,0.0,0.0,0.0,9e-08
1783583862428276967,3719,1783583862428276967,base_link,0.0018098083537,0.0176127625943,-0.998700731485,-0.0477845594257,1.0,0.0,0.0,0.0,1.0,0.0,0.0,0.0,1.0,0.0942261964083,-0.00254968320951,-0.303660869598,1.21846967915e-07,0.0,0.0,0.0,1.21846967915e-07,0.0,0.0,0.0,1.21846967915e-07,-0.1176798,-0.4511059,9.60071035,9e-08,0.0,0.0,0.0,9e-08,0.0,0.0,0.0,9e-08
1783583862428276967,3719,1783583862428276967,base_link,0.0018098083537,0.0176127625943,-0.998700731485,-0.0477845594257,1.0,0.0,0.0,0.0,1.0,0.0,0.0,0.0,1.0,0.0942261964083,-0.00254968320951,-0.303660869598,1.21846967915e-07,0.0,0.0,0.0,1.21846967915e-07,0.0,0.0,0.0,1.21846967915e-07,-0.1176798,-0.4511059,9.60071035,9e-08,0.0,0.0,0.0,9e-08,0.0,0.0,0.0,9e-08
1783583862428276967,3719,1783583862428276967,base_link,0.0018098083537,0.0176127625943,-0.998700731485,-0.0477845594257,1.0,0.0,0.0,0.0,1.0,0.0,0.0,0.0,1.0,0.0942261964083,-0.00254968320951,-0.303660869598,1.21846967915e-07,0.0,0.0,0.0,1.21846967915e-07,0.0,0.0,0.0,1.21846967915e-07,-0.1176798,-0.4511059,9.60071035,9e-08,0.0,0.0,0.0,9e-08,0.0,0.0,0.0,9e-08
1783583862428276967,3719,1783583862428276967,base_link,0.0018098083537,0.0176127625943,-0.998700731485,-0.0477845594257,1.0,0.0,0.0,0.0,1.0,0.0,0.0,0.0,1.0,0.0942261964083,-0.00254968320951,-0.303660869598,1.21846967915e-07,0.0,0.0,0.0,1.21846967915e-07,0.0,0.0,0.0,1.21846967915e-07,-0.1176798,-0.4511059,9.60071035,9e-08,0.0,0.0,0.0,9e-08,0.0,0.0,0.0,9e-08
1783583862428276967,3719,1783583862428276967,base_link,0.0018098083537,0.0176127625943,-0.998700731485,-0.0477845594257,1.0,0.0,0.0,0.0,1.0,0.0,0.0,0.0,1.0,0.0942261964083,-0.00254968320951,-0.303660869598,1.21846967915e-07,0.0,0.0,0.0,1.21846967915e-07,0.0,0.0,0.0,1.21846967915e-07,-0.1176798,-0.4511059,9.60071035,9e-08,0.0,0.0,0.0,9e-08,0.0,0.0,0.0,9e-08
1783583862428276967,3719,1783583862428276967,base_link,0.0018098083537,0.0176127625943,-0.998700731485,-0.0477845594257,1.0,0.0,0.0,0.0,1.0,0.0,0.0,0.0,1.0,0.0942261964083,-0.00254968320951,-0.303660869598,1.21846967915e-07,0.0,0.0,0.0,1.21846967915e-07,0.0,0.0,0.0,1.21846967915e-07,-0.1176798,-0.4511059,9.60071035,9e-08,0.0,0.0,0.0,9e-08,0.0,0.0,0.0,9e-08
1783583862428276967,3719,1783583862428276967,base_link,0.0018098083537,0.0176127625943,-0.998700731485,-0.0477845594257,1.0,0.0,0.0,0.0,1.0,0.0,0.0,0.0,1.0,0.0942261964083,-0.00254968320951,-0.303660869598,1.21846967915e-07,0.0,0.0,0.0,1.21846967915e-07,0.0,0.0,0.0,1.21846967915e-07,-0.1176798,-0.4511059,9.60071035,9e-08,0.0,0.0,0.0,9e-08,0.0,0.0,0.0,9e-08
1783583862428276967,3719,1783583862428276967,base_link,0.0018098083537,0.0176127625943,-0.998700731485,-0.0477845594257,1.0,0.0,0.0,0.0,1.0,0.0,0.0,0.0,1.0,0.0942261964083,-0.00254968320951,-0.303660869598,1.21846967915e-07,0.0,0.0,0.0,1.21846967915e-07,0.0,0.0,0.0,1.21846967915e-07,-0.1176798,-0.4511059,9.60071035,9e-08,0.0,0.0,0.0,9e-08,0.0,0.0,0.0,9e-08
1783583862428276967,3719,1783583862428276967,base_link,0.0018098083537,0.0176127625943,-0.998700731485,-0.0477845594257,1.0,0.0,0.0,0.0,1.0,0.0,0.0,0.0,1.0,0.0942261964083,-0.00254968320951,-0.303660869598,1.21846967915e-07,0.0,0.0,0.0,1.21846967915e-07,0.0,0.0,0.0,1.21846967915e-07,-0.1176798,-0.4511059,9.60071035,9e-08,0.0,0.0,0.0,9e-08,0.0,0.0,0.0,9e-08
1783583862428276967,3719,1783583862428276967,base_link,0.0018098083537,0.0176127625943,-0.998700731485,-0.0477845594257,1.0,0.0,0.0,0.0,1.0,0.0,0.0,0.0,1.0,0.0942261964083,-0.00254968320951,-0.303660869598,1.21846967915e-07,0.0,0.0,0.0,1.21846967915e-07,0.0,0.0,0.0,1.21846967915e-07,-0.1176798,-0.4511059,9.60071035,9e-08,0.0,0.0,0.0,9e-08,0.0,0.0,0.0,9e-08
1783583862428276967,3719,1783583862428276967,base_link,0.0018098083537,0.0176127625943,-0.998700731485,-0.0477845594257,1.0,0.0,0.0,0.0,1.0,0.0,0.0,0.0,1.0,0.0942261964083,-0.00254968320951,-0.303660869598,1.21846967915e-07,0.0,0.0,0.0,1.21846967915e-07,0.0,0.0,0.0,1.21846967915e-07,-0.1176798,-0.4511059,9.60071035,9e-08,0.0,0.0,0.0,9e-08,0.0,0.0,0.0,9e-08
1783583862428276967,3719,1783583862428276967,base_link,0.0018098083537,0.0176127625943,-0.998700731485,-0.0477845594257,1.0,0.0,0.0,0.0,1.0,0.0,0.0,0.0,1.0,0.0942261964083,-0.00254968320951,-0.303660869598,1.21846967915e-07,0.0,0.0,0.0,1.21846967915e-07,0.0,0.0,0.0,1.21846967915e-07,-0.1176798,-0.4511059,9.60071035,9e-08,0.0,0.0,0.0,9e-08,0.0,0.0,0.0,9e-08
1783583862669466710,3720,1783583862669466710,base_link,0.0024051425765,0.0247703627092,-0.999578834411,-0.0149264268463,1.0,0.0,0.0,0.0,1.0,0.0,0.0,0.0,1.0,-0.0873589664698,0.00327620375901,0.385451614857,1.21846967915e-07,0.0,0.0,0.0,1.21846967915e-07,0.0,0.0,0.0,1.21846967915e-07,0.7256921,-1.176798,9.9047165,9e-08,0.0,0.0,0.0,9e-08,0.0,0.0,0.0,9e-08
1783583862669466710,3720,1783583862669466710,base_link,0.0024051425765,0.0247703627092,-0.999578834411,-0.0149264268463,1.0,0.0,0.0,0.0,1.0,0.0,0.0,0.0,1.0,-0.0873589664698,0.00327620375901,0.385451614857,1.21846967915e-07,0.0,0.0,0.0,1.21846967915e-07,0.0,0.0,0.0,1.21846967915e-07,0.7256921,-1.176798,9.9047165,9e-08,0.0,0.0,0.0,9e-08,0.0,0.0,0.0,9e-08
1783583862669466710,3720,1783583862669466710,base_link,0.0024051425765,0.0247703627092,-0.999578834411,-0.0149264268463,1.0,0.0,0.0,0.0,1.0,0.0,0.0,0.0,1.0,-0.0873589664698,0.00327620375901,0.385451614857,1.21846967915e-07,0.0,0.0,0.0,1.21846967915e-07,0.0,0.0,0.0,1.21846967915e-07,0.7256921,-1.176798,9.9047165,9e-08,0.0,0.0,0.0,9e-08,0.0,0.0,0.0,9e-08
1783583862669466710,3720,1783583862669466710,base_link,0.0024051425765,0.0247703627092,-0.999578834411,-0.0149264268463,1.0,0.0,0.0,0.0,1.0,0.0,0.0,0.0,1.0,-0.0873589664698,0.00327620375901,0.385451614857,1.21846967915e-07,0.0,0.0,0.0,1.21846967915e-07,0.0,0.0,0.0,1.21846967915e-07,0.7256921,-1.176798,9.9047165,9e-08,0.0,0.0,0.0,9e-08,0.0,0.0,0.0,9e-08
1783583862669466710,3720,1783583862669466710,base_link,0.0024051425765,0.0247703627092,-0.999578834411,-0.0149264268463,1.0,0.0,0.0,0.0,1.0,0.0,0.0,0.0,1.0,-0.0873589664698,0.00327620375901,0.385451614857,1.21846967915e-07,0.0,0.0,0.0,1.21846967915e-07,0.0,0.0,0.0,1.21846967915e-07,0.7256921,-1.176798,9.9047165,9e-08,0.0,0.0,0.0,9e-08,0.0,0.0,0.0,9e-08
1783583862669466710,3720,1783583862669466710,base_link,0.0024051425765,0.0247703627092,-0.999578834411,-0.0149264268463,1.0,0.0,0.0,0.0,1.0,0.0,0.0,0.0,1.0,-0.0873589664698,0.00327620375901,0.385451614857,1.21846967915e-07,0.0,0.0,0.0,1.21846967915e-07,0.0,0.0,0.0,1.21846967915e-07,0.7256921,-1.176798,9.9047165,9e-08,0.0,0.0,0.0,9e-08,0.0,0.0,0.0,9e-08
1783583862669466710,3720,1783583862669466710,base_link,0.0024051425765,0.0247703627092,-0.999578834411,-0.0149264268463,1.0,0.0,0.0,0.0,1.0,0.0,0.0,0.0,1.0,-0.0873589664698,0.00327620375901,0.385451614857,1.21846967915e-07,0.0,0.0,0.0,1.21846967915e-07,0.0,0.0,0.0,1.21846967915e-07,0.7256921,-1.176798,9.9047165,9e-08,0.0,0.0,0.0,9e-08,0.0,0.0,0.0,9e-08
1783583862669466710,3720,1783583862669466710,base_link,0.0024051425765,0.0247703627092,-0.999578834411,-0.0149264268463,1.0,0.0,0.0,0.0,1.0,0.0,0.0,0.0,1.0,-0.0873589664698,0.00327620375901,0.385451614857,1.21846967915e-07,0.0,0.0,0.0,1.21846967915e-07,0.0,0.0,0.0,1.21846967915e-07,0.7256921,-1.176798,9.9047165,9e-08,0.0,0.0,0.0,9e-08,0.0,0.0,0.0,9e-08
1783583862669466710,3720,1783583862669466710,base_link,0.0024051425765,0.0247703627092,-0.999578834411,-0.0149264268463,1.0,0.0,0.0,0.0,1.0,0.0,0.0,0.0,1.0,-0.0873589664698,0.00327620375901,0.385451614857,1.21846967915e-07,0.0,0.0,0.0,1.21846967915e-07,0.0,0.0,0.0,1.21846967915e-07,0.7256921,-1.176798,9.9047165,9e-08,0.0,0.0,0.0,9e-08,0.0,0.0,0.0,9e-08
1783583862669466710,3720,1783583862669466710,base_link,0.0024051425765,0.0247703627092,-0.999578834411,-0.0149264268463,1.0,0.0,0.0,0.0,1.0,0.0,0.0,0.0,1.0,-0.0873589664698,0.00327620375901,0.385451614857,1.21846967915e-07,0.0,0.0,0.0,1.21846967915e-07,0.0,0.0,0.0,1.21846967915e-07,0.7256921,-1.176798,9.9047165,9e-08,0.0,0.0,0.0,9e-08,0.0,0.0,0.0,9e-08
1783583862669466710,3720,1783583862669466710,base_link,0.0024051425765,0.0247703627092,-0.999578834411,-0.0149264268463,1.0,0.0,0.0,0.0,1.0,0.0,0.0,0.0,1.0,-0.0873589664698,0.00327620375901,0.385451614857,1.21846967915e-07,0.0,0.0,0.0,1.21846967915e-07,0.0,0.0,0.0,1.21846967915e-07,0.7256921,-1.176798,9.9047165,9e-08,0.0,0.0,0.0,9e-08,0.0,0.0,0.0,9e-08
1783583862669466710,3720,1783583862669466710,base_link,0.0024051425765,0.0247703627092,-0.999578834411,-0.0149264268463,1.0,0.0,0.0,0.0,1.0,0.0,0.0,0.0,1.0,-0.0873589664698,0.00327620375901,0.385451614857,1.21846967915e-07,0.0,0.0,0.0,1.21846967915e-07,0.0,0.0,0.0,1.21846967915e-07,0.7256921,-1.176798,9.9047165,9e-08,0.0,0.0,0.0,9e-08,0.0,0.0,0.0,9e-08
1783583862669466710,3720,1783583862669466710,base_link,0.0024051425765,0.0247703627092,-0.999578834411,-0.0149264268463,1.0,0.0,0.0,0.0,1.0,0.0,0.0,0.0,1.0,-0.0873589664698,0.00327620375901,0.385451614857,1.21846967915e-07,0.0,0.0,0.0,1.21846967915e-07,0.0,0.0,0.0,1.21846967915e-07,0.7256921,-1.176798,9.9047165,9e-08,0.0,0.0,0.0,9e-08,0.0,0.0,0.0,9e-08
1783583862669466710,3720,1783583862669466710,base_link,0.0024051425765,0.0247703627092,-0.999578834411,-0.0149264268463,1.0,0.0,0.0,0.0,1.0,0.0,0.0,0.0,1.0,-0.0873589664698,0.00327620375901,0.385451614857,1.21846967915e-07,0.0,0.0,0.0,1.21846967915e-07,0.0,0.0,0.0,1.21846967915e-07,0.7256921,-1.176798,9.9047165,9e-08,0.0,0.0,0.0,9e-08,0.0,0.0,0.0,9e-08
1783583862669466710,3720,1783583862669466710,base_link,0.0024051425765,0.0247703627092,-0.999578834411,-0.0149264268463,1.0,0.0,0.0,0.0,1.0,0.0,0.0,0.0,1.0,-0.0873589664698,0.00327620375901,0.385451614857,1.21846967915e-07,0.0,0.0,0.0,1.21846967915e-07,0.0,0.0,0.0,1.21846967915e-07,0.7256921,-1.176798,9.9047165,9e-08,0.0,0.0,0.0,9e-08,0.0,0.0,0.0,9e-08
1783583862669466710,3720,1783583862669466710,base_link,0.0024051425765,0.0247703627092,-0.999578834411,-0.0149264268463,1.0,0.0,0.0,0.0,1.0,0.0,0.0,0.0,1.0,-0.0873589664698,0.00327620375901,0.385451614857,1.21846967915e-07,0.0,0.0,0.0,1.21846967915e-07,0.0,0.0,0.0,1.21846967915e-07,0.7256921,-1.176798,9.9047165,9e-08,0.0,0.0,0.0,9e-08,0.0,0.0,0.0,9e-08
1783583862669466710,3720,1783583862669466710,base_link,0.0024051425765,0.0247703627092,-0.999578834411,-0.0149264268463,1.0,0.0,0.0,0.0,1.0,0.0,0.0,0.0,1.0,-0.0873589664698,0.00327620375901,0.385451614857,1.21846967915e-07,0.0,0.0,0.0,1.21846967915e-07,0.0,0.0,0.0,1.21846967915e-07,0.7256921,-1.176798,9.9047165,9e-08,0.0,0.0,0.0,9e-08,0.0,0.0,0.0,9e-08
1783583862669466710,3720,1783583862669466710,base_link,0.0024051425765,0.0247703627092,-0.999578834411,-0.0149264268463,1.0,0.0,0.0,0.0,1.0,0.0,0.0,0.0,1.0,-0.0873589664698,0.00327620375901,0.385451614857,1.21846967915e-07,0.0,0.0,0.0,1.21846967915e-07,0.0,0.0,0.0,1.21846967915e-07,0.7256921,-1.176798,9.9047165,9e-08,0.0,0.0,0.0,9e-08,0.0,0.0,0.0,9e-08
1783583862669466710,3720,1783583862669466710,base_link,0.0024051425765,0.0247703627092,-0.999578834411,-0.0149264268463,1.0,0.0,0.0,0.0,1.0,0.0,0.0,0.0,1.0,-0.0873589664698,0.00327620375901,0.385451614857,1.21846967915e-07,0.0,0.0,0.0,1.21846967915e-07,0.0,0.0,0.0,1.21846967915e-07,0.7256921,-1.176798,9.9047165,9e-08,0.0,0.0,0.0,9e-08,0.0,0.0,0.0,9e-08
1783583862669466710,3720,1783583862669466710,base_link,0.0024051425765,0.0247703627092,-0.999578834411,-0.0149264268463,1.0,0.0,0.0,0.0,1.0,0.0,0.0,0.0,1.0,-0.0873589664698,0.00327620375901,0.385451614857,1.21846967915e-07,0.0,0.0,0.0,1.21846967915e-07,0.0,0.0,0.0,1.21846967915e-07,0.7256921,-1.176798,9.9047165,9e-08,0.0,0.0,0.0,9e-08,0.0,0.0,0.0,9e-08
1783583862669466710,3720,1783583862669466710,base_link,0.0024051425765,0.0247703627092,-0.999578834411,-0.0149264268463,1.0,0.0,0.0,0.0,1.0,0.0,0.0,0.0,1.0,-0.0873589664698,0.00327620375901,0.385451614857,1.21846967915e-07,0.0,0.0,0.0,1.21846967915e-07,0.0,0.0,0.0,1.21846967915e-07,0.7256921,-1.176798,9.9047165,9e-08,0.0,0.0,0.0,9e-08,0.0,0.0,0.0,9e-08
1783583862669466710,3720,1783583862669466710,base_link,0.0024051425765,0.0247703627092,-0.999578834411,-0.0149264268463,1.0,0.0,0.0,0.0,1.0,0.0,0.0,0.0,1.0,-0.0873589664698,0.00327620375901,0.385451614857,1.21846967915e-07,0.0,0.0,0.0,1.21846967915e-07,0.0,0.0,0.0,1.21846967915e-07,0.7256921,-1.176798,9.9047165,9e-08,0.0,0.0,0.0,9e-08,0.0,0.0,0.0,9e-08
1783583862669466710,3720,1783583862669466710,base_link,0.0024051425765,0.0247703627092,-0.999578834411,-0.0149264268463,1.0,0.0,0.0,0.0,1.0,0.0,0.0,0.0,1.0,-0.0873589664698,0.00327620375901,0.385451614857,1.21846967915e-07,0.0,0.0,0.0,1.21846967915e-07,0.0,0.0,0.0,1.21846967915e-07,0.7256921,-1.176798,9.9047165,9e-08,0.0,0.0,0.0,9e-08,0.0,0.0,0.0,9e-08
1783583862669466710,3720,1783583862669466710,base_link,0.0024051425765,0.0247703627092,-0.999578834411,-0.0149264268463,1.0,0.0,0.0,0.0,1.0,0.0,0.0,0.0,1.0,-0.0873589664698,0.00327620375901,0.385451614857,1.21846967915e-07,0.0,0.0,0.0,1.21846967915e-07,0.0,0.0,0.0,1.21846967915e-07,0.7256921,-1.176798,9.9047165,9e-08,0.0,0.0,0.0,9e-08,0.0,0.0,0.0,9e-08
1783583862669466710,3720,1783583862669466710,base_link,0.0024051425765,0.0247703627092,-0.999578834411,-0.0149264268463,1.0,0.0,0.0,0.0,1.0,0.0,0.0,0.0,1.0,-0.0873589664698,0.00327620375901,0.385451614857,1.21846967915e-07,0.0,0.0,0.0,1.21846967915e-07,0.0,0.0,0.0,1.21846967915e-07,0.7256921,-1.176798,9.9047165,9e-08,0.0,0.0,0.0,9e-08,0.0,0.0,0.0,9e-08
1783583862669466710,3720,1783583862669466710,base_link,0.0024051425765,0.0247703627092,-0.999578834411,-0.0149264268463,1.0,0.0,0.0,0.0,1.0,0.0,0.0,0.0,1.0,-0.0873589664698,0.00327620375901,0.385451614857,1.21846967915e-07,0.0,0.0,0.0,1.21846967915e-07,0.0,0.0,0.0,1.21846967915e-07,0.7256921,-1.176798,9.9047165,9e-08,0.0,0.0,0.0,9e-08,0.0,0.0,0.0,9e-08
1783583862928468502,3721,1783583862928468502,base_link,0.00286284348575,0.0176810157801,-0.999310282648,-0.0325291377264,1.0,0.0,0.0,0.0,1.0,0.0,0.0,0.0,1.0,0.01262859907,-0.00076247472316,-0.0676540955901,1.21846967915e-07,0.0,0.0,0.0,1.21846967915e-07,0.0,0.0,0.0,1.21846967915e-07,0.7256921,-1.176798,9.9047165,9e-08,0.0,0.0,0.0,9e-08,0.0,0.0,0.0,9e-08
1783583862928468502,3721,1783583862928468502,base_link,0.00286284348575,0.0176810157801,-0.999310282648,-0.0325291377264,1.0,0.0,0.0,0.0,1.0,0.0,0.0,0.0,1.0,0.01262859907,-0.00076247472316,-0.0676540955901,1.21846967915e-07,0.0,0.0,0.0,1.21846967915e-07,0.0,0.0,0.0,1.21846967915e-07,0.7256921,-1.176798,9.9047165,9e-08,0.0,0.0,0.0,9e-08,0.0,0.0,0.0,9e-08
1783583862928468502,3721,1783583862928468502,base_link,0.00286284348575,0.0176810157801,-0.999310282648,-0.0325291377264,1.0,0.0,0.0,0.0,1.0,0.0,0.0,0.0,1.0,0.01262859907,-0.00076247472316,-0.0676540955901,1.21846967915e-07,0.0,0.0,0.0,1.21846967915e-07,0.0,0.0,0.0,1.21846967915e-07,0.7256921,-1.176798,9.9047165,9e-08,0.0,0.0,0.0,9e-08,0.0,0.0,0.0,9e-08
