%time,field.header.seq,field.header.stamp,field.header.frame_id,field.orientation.x,field.orientation.y,field.orientation.z,field.orientation.w,field.orientation_covariance0,field.orientation_covariance1,field.orientation_covariance2,field.orientation_covariance3,field.orientation_covariance4,field.orientation_covariance5,field.orientation_covariance6,field.orientation_covariance7,field.orientation_covariance8,field.angular_velocity.x,field.angular_velocity.y,field.angular_velocity.z,field.angular_velocity_covariance0,field.angular_velocity_covariance1,field.angular_velocity_covariance2,field.angular_velocity_covariance3,field.angular_velocity_covariance4,field.angular_velocity_covariance5,field.angular_velocity_covariance6,field.angular_velocity_covariance7,field.angular_velocity_covariance8,field.linear_acceleration.x,field.linear_acceleration.y,field.linear_acceleration.z,field.linear_acceleration_covariance0,field.linear_acceleration_covariance1,field.linear_acceleration_covariance2,field.linear_acceleration_covariance3,field.linear_acceleration_covariance4,field.linear_acceleration_covariance5,field.linear_acceleration_covariance6,field.linear_acceleration_covariance7,field.linear_acceleration_covariance8
1783584045674225067,4452,1783584045674225067,base_link,0.020114328354,-0.01535596663,0.448637207706,-0.89335562009,1.0,0.0,0.0,0.0,1.0,0.0,0.0,0.0,1.0,-0.00604479853064,0.00804640259594,0.013806537725,1.21846967915e-07,0.0,0.0,0.0,1.21846967915e-07,0.0,0.0,0.0,1.21846967915e-07,0.0,-0.3138128,9.85568325,9e-08,0.0,0.0,0.0,9e-08,0.0,0.0,0.0,9e-08
1783584045674225067,4452,1783584045674225067,base_link,0.020114328354,-0.01535596663,0.448637207706,-0.89335562009,1.0,0.0,0.0,0.0,1.0,0.0,0.0,0.0,1.0,-0.00604479853064,0.00804640259594,0.013806537725,1.21846967915e-07,0.0,0.0,0.0,1.21846967915e-07,0.0,0.0,0.0,1.21846967915e-07,0.0,-0.3138128,9.85568325,9e-08,0.0,0.0,0.0,9e-08,0.0,0.0,0.0,9e-08
1783584045674225067,4452,1783584045674225067,base_link,0.020114328354,-0.01535596663,0.448637207706,-0.89335562009,1.0,0.0,0.0,0.0,1.0,0.0,0.0,0.0,1.0,-0.00604479853064,0.00804640259594,0.013806537725,1.21846967915e-07,0.0,0.0,0.0,1.21846967915e-07,0.0,0.0,0.0,1.21846967915e-07,0.0,-0.3138128,9.85568325,9e-08,0.0,0.0,0.0,9e-08,0.0,0.0,0.0,9e-08
1783584045674225067,4452,1783584045674225067,base_link,0.020114328354,-0.01535596663,0.448637207706,-0.89335562009,1.0,0.0,0.0,0.0,1.0,0.0,0.0,0.0,1.0,-0.00604479853064,0.00804640259594,0.013806537725,1.21846967915e-07,0.0,0.0,0.0,1.21846967915e-07,0.0,0.0,0.0,1.21846967915e-07,0.0,-0.3138128,9.85568325,9e-08,0.0,0.0,0.0,9e-08,0.0,0.0,0.0,9e-08
1783584045674225067,4452,1783584045674225067,base_link,0.020114328354,-0.01535596663,0.448637207706,-0.89335562009,1.0,0.0,0.0,0.0,1.0,0.0,0.0,0.0,1.0,-0.00604479853064,0.00804640259594,0.013806537725,1.21846967915e-07,0.0,0.0,0.0,1.21846967915e-07,0.0,0.0,0.0,1.21846967915e-07,0.0,-0.3138128,9.85568325,9e-08,0.0,0.0,0.0,9e-08,0.0,0.0,0.0,9e-08
1783584045674225067,4452,1783584045674225067,base_link,0.020114328354,-0.01535596663,0.448637207706,-0.89335562009,1.0,0.0,0.0,0.0,1.0,0.0,0.0,0.0,1.0,-0.00604479853064,0.00804640259594,0.013806537725,1.21846967915e-07,0.0,0.0,0.0,1.21846967915e-07,0.0,0.0,0.0,1.21846967915e-07,0.0,-0.3138128,9.85568325,9e-08,0.0,0.0,0.0,9e-08,0.0,0.0,0.0,9e-08
1783584045674225067,4452,1783584045674225067,base_link,0.020114328354,-0.01535596663,0.448637207706,-0.89335562009,1.0,0.0,0.0,0.0,1.0,0.0,0.0,0.0,1.0,-0.00604479853064,0.00804640259594,0.013806537725,1.21846967915e-07,0.0,0.0,0.0,1.21846967915e-07,0.0,0.0,0.0,1.21846967915e-07,0.0,-0.3138128,9.85568325,9e-08,0.0,0.0,0.0,9e-08,0.0,0.0,0.0,9e-08
1783584045674225067,4452,1783584045674225067,base_link,0.020114328354,-0.01535596663,0.448637207706,-0.89335562009,1.0,0.0,0.0,0.0,1.0,0.0,0.0,0.0,1.0,-0.00604479853064,0.00804640259594,0.013806537725,1.21846967915e-07,0.0,0.0,0.0,1.21846967915e-07,0.0,0.0,0.0,1.21846967915e-07,0.0,-0.3138128,9.85568325,9e-08,0.0,0.0,0.0,9e-08,0.0,0.0,0.0,9e-08
1783584045674225067,4452,1783584045674225067,base_link,0.020114328354,-0.01535596663,0.448637207706,-0.89335562009,1.0,0.0,0.0,0.0,1.0,0.0,0.0,0.0,1.0,-0.00604479853064,0.00804640259594,0.013806537725,1.21846967915e-07,0.0,0.0,0.0,1.21846967915e-07,0.0,0.0,0.0,1.21846967915e-07,0.0,-0.3138128,9.85568325,9e-08,0.0,0.0,0.0,9e-08,0.0,0.0,0.0,9e-08
1783584045674225067,4452,1783584045674225067,base_link,0.020114328354,-0.01535596663,0.448637207706,-0.89335562009,1.0,0.0,0.0,0.0,1.0,0.0,0.0,0.0,1.0,-0.00604479853064,0.00804640259594,0.013806537725,1.21846967915e-07,0.0,0.0,0.0,1.21846967915e-07,0.0,0.0,0.0,1.21846967915e-07,0.0,-0.3138128,9.85568325,9e-08,0.0,0.0,0.0,9e-08,0.0,0.0,0.0,9e-08
1783584045674225067,4452,1783584045674225067,base_link,0.020114328354,-0.01535596663,0.448637207706,-0.89335562009,1.0,0.0,0.0,0.0,1.0,0.0,0.0,0.0,1.0,-0.00604479853064,0.00804640259594,0.013806537725,1.21846967915e-07,0.0,0.0,0.0,1.21846967915e-07,0.0,0.0,0.0,1.21846967915e-07,0.0,-0.3138128,9.85568325,9e-08,0.0,0.0,0.0,9e-08,0.0,0.0,0.0,9e-08
1783584045674225067,4452,1783584045674225067,base_link,0.020114328354,-0.01535596663,0.448637207706,-0.89335562009,1.0,0.0,0.0,0.0,1.0,0.0,0.0,0.0,1.0,-0.00604479853064,0.00804640259594,0.013806537725,1.21846967915e-07,0.0,0.0,0.0,1.21846967915e-07,0.0,0.0,0.0,1.21846967915e-07,0.0,-0.3138128,9.85568325,9e-08,0.0,0.0,0.0,9e-08,0.0,0.0,0.0,9e-08
1783584045674225067,4452,1783584045674225067,base_link,0.020114328354,-0.01535596663,0.448637207706,-0.89335562009,1.0,0.0,0.0,0.0,1.0,0.0,0.0,0.0,1.0,-0.00604479853064,0.00804640259594,0.013806537725,1.21846967915e-07,0.0,0.0,0.0,1.21846967915e-07,0.0,0.0,0.0,1.21846967915e-07,0.0,-0.3138128,9.85568325,9e-08,0.0,0.0,0.0,9e-08,0.0,0.0,0.0,9e-08
1783584045674225067,4452,1783584045674225067,base_link,0.020114328354,-0.01535596663,0.448637207706,-0.89335562009,1.0,0.0,0.0,0.0,1.0,0.0,0.0,0.0,1.0,-0.00604479853064,0.00804640259594,0.013806537725,1.21846967915e-07,0.0,0.0,0.0,1.21846967915e-07,0.0,0.0,0.0,1.21846967915e-07,0.0,-0.3138128,9.85568325,9e-08,0.0,0.0,0.0,9e-08,0.0,0.0,0.0,9e-08
1783584045674225067,4452,1783584045674225067,base_link,0.020114328354,-0.01535596663,0.448637207706,-0.89335562009,1.0,0.0,0.0,0.0,1.0,0.0,0.0,0.0,1.0,-0.00604479853064,0.00804640259594,0.013806537725,1.21846967915e-07,0.0,0.0,0.0,1.21846967915e-07,0.0,0.0,0.0,1.21846967915e-07,0.0,-0.3138128,9.85568325,9e-08,0.0,0.0,0.0,9e-08,0.0,0.0,0.0,9e-08
1783584045674225067,4452,1783584045674225067,base_link,0.020114328354,-0.01535596663,0.448637207706,-0.89335562009,1.0,0.0,0.0,0.0,1.0,0.0,0.0,0.0,1.0,-0.00604479853064,0.00804640259594,0.013806537725,1.21846967915e-07,0.0,0.0,0.0,1.21846967915e-07,0.0,0.0,0.0,1.21846967915e-07,0.0,-0.3138128,9.85568325,9e-08,0.0,0.0,0.0,9e-08,0.0,0.0,0.0,9e-08
1783584045674225067,4452,1783584045674225067,base_link,0.020114328354,-0.01535596663,0.448637207706,-0.89335562009,1.0,0.0,0.0,0.0,1.0,0.0,0.0,0.0,1.0,-0.00604479853064,0.00804640259594,0.013806537725,1.21846967915e-07,0.0,0.0,0.0,1.21846967915e-07,0.0,0.0,0.0,1.21846967915e-07,0.0,-0.3138128,9.85568325,9e-08,0.0,0.0,0.0,9e-08,0.0,0.0,0.0,9e-08
1783584045674225067,4452,1783584045674225067,base_link,0.020114328354,-0.01535596663,0.448637207706,-0.89335562009,1.0,0.0,0.0,0.0,1.0,0.0,0.0,0.0,1.0,-0.00604479853064,0.00804640259594,0.013806537725,1.21846967915e-07,0.0,0.0,0.0,1.21846967915e-07,0.0,0.0,0.0,1.21846967915e-07,0.0,-0.3138128,9.85568325,9e-08,0.0,0.0,0.0,9e-08,0.0,0.0,0.0,9e-08
1783584045674225067,4452,1783584045674225067,base_link,0.020114328354,-0.01535596663,0.448637207706,-0.89335562009,1.0,0.0,0.0,0.0,1.0,0.0,0.0,0.0,1.0,-0.00604479853064,0.00804640259594,0.013806537725,1.21846967915e-07,0.0,0.0,0.0,1.21846967915e-07,0.0,0.0,0.0,1.21846967915e-07,0.0,-0.3138128,9.85568325,9e-08,0.0,0.0,0.0,9e-08,0.0,0.0,0.0,9e-08
1783584045674225067,4452,1783584045674225067,base_link,0.020114328354,-0.01535596663,0.448637207706,-0.89335562009,1.0,0.0,0.0,0.0,1.0,0.0,0.0,0.0,1.0,-0.00604479853064,0.00804640259594,0.013806537725,1.21846967915e-07,0.0,0.0,0.0,1.21846967915e-07,0.0,0.0,0.0,1.21846967915e-07,0.0,-0.3138128,9.85568325,9e-08,0.0,0.0,0.0,9e-08,0.0,0.0,0.0,9e-08
1783584045674225067,4452,1783584045674225067,base_link,0.020114328354,-0.01535596663,0.448637207706,-0.89335562009,1.0,0.0,0.0,0.0,1.0,0.0,0.0,0.0,1.0,-0.00604479853064,0.00804640259594,0.013806537725,1.21846967915e-07,0.0,0.0,0.0,1.21846967915e-07,0.0,0.0,0.0,1.21846967915e-07,0.0,-0.3138128,9.85568325,9e-08,0.0,0.0,0.0,9e-08,0.0,0.0,0.0,9e-08
1783584045674225067,4452,1783584045674225067,base_link,0.020114328354,-0.01535596663,0.448637207706,-0.89335562009,1.0,0.0,0.0,0.0,1.0,0.0,0.0,0.0,1.0,-0.00604479853064,0.00804640259594,0.013806537725,1.21846967915e-07,0.0,0.0,0.0,1.21846967915e-07,0.0,0.0,0.0,1.21846967915e-07,0.0,-0.3138128,9.85568325,9e-08,0.0,0.0,0.0,9e-08,0.0,0.0,0.0,9e-08
1783584045674225067,4452,1783584045674225067,base_link,0.020114328354,-0.01535596663,0.448637207706,-0.89335562009,1.0,0.0,0.0,0.0,1.0,0.0,0.0,0.0,1.0,-0.00604479853064,0.00804640259594,0.013806537725,1.21846967915e-07,0.0,0.0,0.0,1.21846967915e-07,0.0,0.0,0.0,1.21846967915e-07,0.0,-0.3138128,9.85568325,9e-08,0.0,0.0,0.0,9e-08,0.0,0.0,0.0,9e-08
1783584045674225067,4452,1783584045674225067,base_link,0.020114328354,-0.01535596663,0.448637207706,-0.89335562009,1.0,0.0,0.0,0.0,1.0,0.0,0.0,0.0,1.0,-0.00604479853064,0.00804640259594,0.013806537725,1.21846967915e-07,0.0,0.0,0.0,1.21846967915e-07,0.0,0.0,0.0,1.21846967915e-07,0.0,-0.3138128,9.85568325,9e-08,0.0,0.0,0.0,9e-08,0.0,0.0,0.0,9e-08
1783584045674225067,4452,1783584045674225067,base_link,0.020114328354,-0.01535596663,0.448637207706,-0.89335562009,1.0,0.0,0.0,0.0,1.0,0.0,0.0,0.0,1.0,-0.00604479853064,0.00804640259594,0.013806537725,1.21846967915e-07,0.0,0.0,0.0,1.21846967915e-07,0.0,0.0,0.0,1.21846967915e-07,0.0,-0.3138128,9.85568325,9e-08,0.0,0.0,0.0,9e-08,0.0,0.0,0.0,9e-08
1783584045674225067,4452,1783584045674225067,base_link,0.020114328354,-0.01535596663,0.448637207706,-0.89335562009,1.0,0.0,0.0,0.0,1.0,0.0,0.0,0.0,1.0,-0.00604479853064,0.00804640259594,0.013806537725,1.21846967915e-07,0.0,0.0,0.0,1.21846967915e-07,0.0,0.0,0.0,1.21846967915e-07,0.0,-0.3138128,9.85568325,9e-08,0.0,0.0,0.0,9e-08,0.0,0.0,0.0,9e-08
1783584045933225067,4453,1783584045933225067,base_link,0.0201840390658,-0.0154368306102,0.446149150823,-0.894597811336,1.0,0.0,0.0,0.0,1.0,0.0,0.0,0.0,1.0,-0.00324055738747,-0.000735857523978,0.0214278101921,1.21846967915e-07,0.0,0.0,0.0,1.21846967915e-07,0.0,0.0,0.0,1.21846967915e-07,0.0,-0.3138128,9.85568325,9e-08,0.0,0.0,0.0,9e-08,0.0,0.0,0.0,9e-08
1783584045933225067,4453,1783584045933225067,base_link,0.0201840390658,-0.0154368306102,0.446149150823,-0.894597811336,1.0,0.0,0.0,0.0,1.0,0.0,0.0,0.0,1.0,-0.00324055738747,-0.000735857523978,0.0214278101921,1.21846967915e-07,0.0,0.0,0.0,1.21846967915e-07,0.0,0.0,0.0,1.21846967915e-07,0.0,-0.3138128,9.85568325,9e-08,0.0,0.0,0.0,9e-08,0.0,0.0,0.0,9e-08
1783584045933225067,4453,1783584045933225067,base_link,0.0201840390658,-0.0154368306102,0.446149150823,-0.894597811336,1.0,0.0,0.0,0.0,1.0,0.0,0.0,0.0,1.0,-0.00324055738747,-0.000735857523978,0.0214278101921,1.21846967915e-07,0.0,0.0,0.0,1.21846967915e-07,0.0,0.0,0.0,1.21846967915e-07,0.0,-0.3138128,9.85568325,9e-08,0.0,0.0,0.0,9e-08,0.0,0.0,0.0,9e-08
1783584045933225067,4453,1783584045933225067,base_link,0.0201840390658,-0.0154368306102,0.446149150823,-0.894597811336,1.0,0.0,0.0,0.0,1.0,0.0,0.0,0.0,1.0,-0.00324055738747,-0.000735857523978,0.0214278101921,1.21846967915e-07,0.0,0.0,0.0,1.21846967915e-07,0.0,0.0,0.0,1.21846967915e-07,0.0,-0.3138128,9.85568325,9e-08,0.0,0.0,0.0,9e-08,0.0,0.0,0.0,9e-08
1783584045933225067,4453,1783584045933225067,base_link,0.0201840390658,-0.0154368306102,0.446149150823,-0.894597811336,1.0,0.0,0.0,0.0,1.0,0.0,0.0,0.0,1.0,-0.00324055738747,-0.000735857523978,0.0214278101921,1.21846967915e-07,0.0,0.0,0.0,1.21846967915e-07,0.0,0.0,0.0,1.21846967915e-07,0.0,-0.3138128,9.85568325,9e-08,0.0,0.0,0.0,9e-08,0.0,0.0,0.0,9e-08
1783584045933225067,4453,1783584045933225067,base_link,0.0201840390658,-0.0154368306102,0.446149150823,-0.894597811336,1.0,0.0,0.0,0.0,1.0,0.0,0.0,0.0,1.0,-0.00324055738747,-0.000735857523978,0.0214278101921,1.21846967915e-07,0.0,0.0,0.0,1.21846967915e-07,0.0,0.0,0.0,1.21846967915e-07,0.0,-0.3138128,9.85568325,9e-08,0.0,0.0,0.0,9e-08,0.0,0.0,0.0,9e-08
1783584045933225067,4453,1783584045933225067,base_link,0.0201840390658,-0.0154368306102,0.446149150823,-0.894597811336,1.0,0.0,0.0,0.0,1.0,0.0,0.0,0.0,1.0,-0.00324055738747,-0.000735857523978,0.0214278101921,1.21846967915e-07,0.0,0.0,0.0,1.21846967915e-07,0.0,0.0,0.0,1.21846967915e-07,0.0,-0.3138128,9.85568325,9e-08,0.0,0.0,0.0,9e-08,0.0,0.0,0.0,9e-08
1783584045933225067,4453,1783584045933225067,base_link,0.0201840390658,-0.0154368306102,0.446149150823,-0.894597811336,1.0,0.0,0.0,0.0,1.0,0.0,0.0,0.0,1.0,-0.00324055738747,-0.000735857523978,0.0214278101921,1.21846967915e-07,0.0,0.0,0.0,1.21846967915e-07,0.0,0.0,0.0,1.21846967915e-07,0.0,-0.3138128,9.85568325,9e-08,0.0,0.0,0.0,9e-08,0.0,0.0,0.0,9e-08
1783584045933225067,4453,1783584045933225067,base_link,0.0201840390658,-0.0154368306102,0.446149150823,-0.894597811336,1.0,0.0,0.0,0.0,1.0,0.0,0.0,0.0,1.0,-0.00324055738747,-0.000735857523978,0.0214278101921,1.21846967915e-07,0.0,0.0,0.0,1.21846967915e-07,0.0,0.0,0.0,1.21846967915e-07,0.0,-0.3138128,9.85568325,9e-08,0.0,0.0,0.0,9e-08,0.0,0.0,0.0,9e-08
1783584045933225067,4453,1783584045933225067,base_link,0.0201840390658,-0.0154368306102,0.446149150823,-0.894597811336,1.0,0.0,0.0,0.0,1.0,0.0,0.0,0.0,1.0,-0.00324055738747,-0.000735857523978,0.0214278101921,1.21846967915e-07,0.0,0.0,0.0,1.21846967915e-07,0.0,0.0,0.0,1.21846967915e-07,0.0,-0.3138128,9.85568325,9e-08,0.0,0.0,0.0,9e-08,0.0,0.0,0.0,9e-08
1783584045933225067,4453,1783584045933225067,base_link,0.0201840390658,-0.0154368306102,0.446149150823,-0.894597811336,1.0,0.0,0.0,0.0,1.0,0.0,0.0,0.0,1.0,-0.00324055738747,-0.000735857523978,0.0214278101921,1.21846967915e-07,0.0,0.0,0.0,1.21846967915e-07,0.0,0.0,0.0,1.21846967915e-07,0.0,-0.3138128,9.85568325,9e-08,0.0,0.0,0.0,9e-08,0.0,0.0,0.0,9e-08
1783584045933225067,4453,1783584045933225067,base_link,0.0201840390658,-0.0154368306102,0.446149150823,-0.894597811336,1.0,0.0,0.0,0.0,1.0,0.0,0.0,0.0,1.0,-0.00324055738747,-0.000735857523978,0.0214278101921,1.21846967915e-07,0.0,0.0,0.0,1.21846967915e-07,0.0,0.0,0.0,1.21846967915e-07,0.0,-0.3138128,9.85568325,9e-08,0.0,0.0,0.0,9e-08,0.0,0.0,0.0,9e-08
1783584045933225067,4453,1783584045933225067,base_link,0.0201840390658,-0.0154368306102,0.446149150823,-0.894597811336,1.0,0.0,0.0,0.0,1.0,0.0,0.0,0.0,1.0,-0.00324055738747,-0.000735857523978,0.0214278101921,1.21846967915e-07,0.0,0.0,0.0,1.21846967915e-07,0.0,0.0,0.0,1.21846967915e-07,0.0,-0.3138128,9.85568325,9e-08,0.0,0.0,0.0,9e-08,0.0,0.0,0.0,9e-08
1783584045933225067,4453,1783584045933225067,base_link,0.0201840390658,-0.0154368306102,0.446149150823,-0.894597811336,1.0,0.0,0.0,0.0,1.0,0.0,0.0,0.0,1.0,-0.00324055738747,-0.000735857523978,0.0214278101921,1.21846967915e-07,0.0,0.0,0.0,1.21846967915e-07,0.0,0.0,0.0,1.21846967915e-07,0.0,-0.3138128,9.85568325,9e-08,0.0,0.0,0.0,9e-08,0.0,0.0,0.0,9e-08
1783584045933225067,4453,1783584045933225067,base_link,0.0201840390658,-0.0154368306102,0.446149150823,-0.894597811336,1.0,0.0,0.0,0.0,1.0,0.0,0.0,0.0,1.0,-0.00324055738747,-0.000735857523978,0.0214278101921,1.21846967915e-07,0.0,0.0,0.0,1.21846967915e-07,0.0,0.0,0.0,1.21846967915e-07,0.0,-0.3138128,9.85568325,9e-08,0.0,0.0,0.0,9e-08,0.0,0.0,0.0,9e-08
1783584045933225067,4453,1783584045933225067,base_link,0.0201840390658,-0.0154368306102,0.446149150823,-0.894597811336,1.0,0.0,0.0,0.0,1.0,0.0,0.0,0.0,1.0,-0.00324055738747,-0.000735857523978,0.0214278101921,1.21846967915e-07,0.0,0.0,0.0,1.21846967915e-07,0.0,0.0,0.0,1.21846967915e-07,0.0,-0.3138128,9.85568325,9e-08,0.0,0.0,0.0,9e-08,0.0,0.0,0.0,9e-08
1783584045933225067,4453,1783584045933225067,base_link,0.0201840390658,-0.0154368306102,0.446149150823,-0.894597811336,1.0,0.0,0.0,0.0,1.0,0.0,0.0,0.0,1.0,-0.00324055738747,-0.000735857523978,0.0214278101921,1.21846967915e-07,0.0,0.0,0.0,1.21846967915e-07,0.0,0.0,0.0,1.21846967915e-07,0.0,-0.3138128,9.85568325,9e-08,0.0,0.0,0.0,9e-08,0.0,0.0,0.0,9e-08
1783584045933225067,4453,1783584045933225067,base_link,0.0201840390658,-0.0154368306102,0.446149150823,-0.894597811336,1.0,0.0,0.0,0.0,1.0,0.0,0.0,0.0,1.0,-0.00324055738747,-0.000735857523978,0.0214278101921,1.21846967915e-07,0.0,0.0,0.0,1.21846967915e-07,0.0,0.0,0.0,1.21846967915e-07,0.0,-0.3138128,9.85568325,9e-08,0.0,0.0,0.0,9e-08,0.0,0.0,0.0,9e-08
1783584045933225067,4453,1783584045933225067,base_link,0.0201840390658,-0.0154368306102,0.446149150823,-0.894597811336,1.0,0.0,0.0,0.0,1.0,0.0,0.0,0.0,1.0,-0.00324055738747,-0.000735857523978,0.0214278101921,1.21846967915e-07,0.0,0.0,0.0,1.21846967915e-07,0.0,0.0,0.0,1.21846967915e-07,0.0,-0.3138128,9.85568325,9e-08,0.0,0.0,0.0,9e-08,0.0,0.0,0.0,9e-08
1783584045933225067,4453,1783584045933225067,base_link,0.0201840390658,-0.0154368306102,0.446149150823,-0.894597811336,1.0,0.0,0.0,0.0,1.0,0.0,0.0,0.0,1.0,-0.00324055738747,-0.000735857523978,0.0214278101921,1.21846967915e-07,0.0,0.0,0.0,1.21846967915e-07,0.0,0.0,0.0,1.21846967915e-07,0.0,-0.3138128,9.85568325,9e-08,0.0,0.0,0.0,9e-08,0.0,0.0,0.0,9e-08
1783584045933225067,4453,1783584045933225067,base_link,0.0201840390658,-0.0154368306102,0.446149150823,-0.894597811336,1.0,0.0,0.0,0.0,1.0,0.0,0.0,0.0,1.0,-0.00324055738747,-0.000735857523978,0.0214278101921,1.21846967915e-07,0.0,0.0,0.0,1.21846967915e-07,0.0,0.0,0.0,1.21846967915e-07,0.0,-0.3138128,9.85568325,9e-08,0.0,0.0,0.0,9e-08,0.0,0.0,0.0,9e-08
1783584045933225067,4453,1783584045933225067,base_link,0.0201840390658,-0.0154368306102,0.446149150823,-0.894597811336,1.0,0.0,0.0,0.0,1.0,0.0,0.0,0.0,1.0,-0.00324055738747,-0.000735857523978,0.0214278101921,1.21846967915e-07,0.0,0.0,0.0,1.21846967915e-07,0.0,0.0,0.0,1.21846967915e-07,0.0,-0.3138128,9.85568325,9e-08,0.0,0.0,0.0,9e-08,0.0,0.0,0.0,9e-08
1783584045933225067,4453,1783584045933225067,base_link,0.0201840390658,-0.0154368306102,0.446149150823,-0.894597811336,1.0,0.0,0.0,0.0,1.0,0.0,0.0,0.0,1.0,-0.00324055738747,-0.000735857523978,0.0214278101921,1.21846967915e-07,0.0,0.0,0.0,1.21846967915e-07,0.0,0.0,0.0,1.21846967915e-07,0.0,-0.3138128,9.85568325,9e-08,0.0,0.0,0.0,9e-08,0.0,0.0,0.0,9e-08
1783584045933225067,4453,1783584045933225067,base_link,0.0201840390658,-0.0154368306102,0.446149150823,-0.894597811336,1.0,0.0,0.0,0.0,1.0,0.0,0.0,0.0,1.0,-0.00324055738747,-0.000735857523978,0.0214278101921,1.21846967915e-07,0.0,0.0,0.0,1.21846967915e-07,0.0,0.0,0.0,1.21846967915e-07,0.0,-0.3138128,9.85568325,9e-08,0.0,0.0,0.0,9e-08,0.0,0.0,0.0,9e-08
1783584046174274213,4454,1783584046174274213,base_link,0.0201714126662,-0.0151704744479,0.443451337167,-0.895943012909,1.0,0.0,0.0,0.0,1.0,0.0,0.0,0.0,1.0,-0.00266628712416,0.000388273969293,0.0252316109836,1.21846967915e-07,0.0,0.0,0.0,1.21846967915e-07,0.0,0.0,0.0,1.21846967915e-07,0.0,-0.3138128,9.83606995,9e-08,0.0,0.0,0.0,9e-08,0.0,0.0,0.0,9e-08
1783584046174274213,4454,1783584046174274213,base_link,0.0201714126662,-0.0151704744479,0.443451337167,-0.895943012909,1.0,0.0,0.0,0.0,1.0,0.0,0.0,0.0,1.0,-0.00266628712416,0.000388273969293,0.0252316109836,1.21846967915e-07,0.0,0.0,0.0,1.21846967915e-07,0.0,0.0,0.0,1.21846967915e-07,0.0,-0.3138128,9.83606995,9e-08,0.0,0.0,0.0,9e-08,0.0,0.0,0.0,9e-08
1783584046174274213,4454,1783584046174274213,base_link,0.0201714126662,-0.0151704744479,0.443451337167,-0.895943012909,1.0,0.0,0.0,0.0,1.0,0.0,0.0,0.0,1.0,-0.00266628712416,0.000388273969293,0.0252316109836,1.21846967915e-07,0.0,0.0,0.0,1.21846967915e-07,0.0,0.0,0.0,1.21846967915e-07,0.0,-0.3138128,9.83606995,9e-08,0.0,0.0,0.0,9e-08,0.0,0.0,0.0,9e-08
1783584046174274213,4454,1783584046174274213,base_link,0.0201714126662,-0.0151704744479,0.443451337167,-0.895943012909,1.0,0.0,0.0,0.0,1.0,0.0,0.0,0.0,1.0,-0.00266628712416,0.000388273969293,0.0252316109836,1.21846967915e-07,0.0,0.0,0.0,1.21846967915e-07,0.0,0.0,0.0,1.21846967915e-07,0.0,-0.3138128,9.83606995,9e-08,0.0,0.0,0.0,9e-08,0.0,0.0,0.0,9e-08
1783584046174274213,4454,1783584046174274213,base_link,0.0201714126662,-0.0151704744479,0.443451337167,-0.895943012909,1.0,0.0,0.0,0.0,1.0,0.0,0.0,0.0,1.0,-0.00266628712416,0.000388273969293,0.0252316109836,1.21846967915e-07,0.0,0.0,0.0,1.21846967915e-07,0.0,0.0,0.0,1.21846967915e-07,0.0,-0.3138128,9.83606995,9e-08,0.0,0.0,0.0,9e-08,0.0,0.0,0.0,9e-08
1783584046174274213,4454,1783584046174274213,base_link,0.0201714126662,-0.0151704744479,0.443451337167,-0.895943012909,1.0,0.0,0.0,0.0,1.0,0.0,0.0,0.0,1.0,-0.00266628712416,0.000388273969293,0.0252316109836,1.21846967915e-07,0.0,0.0,0.0,1.21846967915e-07,0.0,0.0,0.0,1.21846967915e-07,0.0,-0.3138128,9.83606995,9e-08,0.0,0.0,0.0,9e-08,0.0,0.0,0.0,9e-08
1783584046174274213,4454,1783584046174274213,base_link,0.0201714126662,-0.0151704744479,0.443451337167,-0.895943012909,1.0,0.0,0.0,0.0,1.0,0.0,0.0,0.0,1.0,-0.00266628712416,0.000388273969293,0.0252316109836,1.21846967915e-07,0.0,0.0,0.0,1.21846967915e-07,0.0,0.0,0.0,1.21846967915e-07,0.0,-0.3138128,9.83606995,9e-08,0.0,0.0,0.0,9e-08,0.0,0.0,0.0,9e-08
1783584046174274213,4454,1783584046174274213,base_link,0.0201714126662,-0.0151704744479,0.443451337167,-0.895943012909,1.0,0.0,0.0,0.0,1.0,0.0,0.0,0.0,1.0,-0.00266628712416,0.000388273969293,0.0252316109836,1.21846967915e-07,0.0,0.0,0.0,1.21846967915e-07,0.0,0.0,0.0,1.21846967915e-07,0.0,-0.3138128,9.83606995,9e-08,0.0,0.0,0.0,9e-08,0.0,0.0,0.0,9e-08
1783584046174274213,4454,1783584046174274213,base_link,0.0201714126662,-0.0151704744479,0.443451337167,-0.895943012909,1.0,0.0,0.0,0.0,1.0,0.0,0.0,0.0,1.0,-0.00266628712416,0.000388273969293,0.0252316109836,1.21846967915e-07,0.0,0.0,0.0,1.21846967915e-07,0.0,0.0,0.0,1.21846967915e-07,0.0,-0.3138128,9.83606995,9e-08,0.0,0.0,0.0,9e-08,0.0,0.0,0.0,9e-08
1783584046174274213,4454,1783584046174274213,base_link,0.0201714126662,-0.0151704744479,0.443451337167,-0.895943012909,1.0,0.0,0.0,0.0,1.0,0.0,0.0,0.0,1.0,-0.00266628712416,0.000388273969293,0.0252316109836,1.21846967915e-07,0.0,0.0,0.0,1.21846967915e-07,0.0,0.0,0.0,1.21846967915e-07,0.0,-0.3138128,9.83606995,9e-08,0.0,0.0,0.0,9e-08,0.0,0.0,0.0,9e-08
1783584046174274213,4454,1783584046174274213,base_link,0.0201714126662,-0.0151704744479,0.443451337167,-0.895943012909,1.0,0.0,0.0,0.0,1.0,0.0,0.0,0.0,1.0,-0.00266628712416,0.000388273969293,0.0252316109836,1.21846967915e-07,0.0,0.0,0.0,1.21846967915e-07,0.0,0.0,0.0,1.21846967915e-07,0.0,-0.3138128,9.83606995,9e-08,0.0,0.0,0.0,9e-08,0.0,0.0,0.0,9e-08
1783584046174274213,4454,1783584046174274213,base_link,0.0201714126662,-0.0151704744479,0.443451337167,-0.895943012909,1.0,0.0,0.0,0.0,1.0,0.0,0.0,0.0,1.0,-0.00266628712416,0.000388273969293,0.0252316109836,1.21846967915e-07,0.0,0.0,0.0,1.21846967915e-07,0.0,0.0,0.0,1.21846967915e-07,0.0,-0.3138128,9.83606995,9e-08,0.0,0.0,0.0,9e-08,0.0,0.0,0.0,9e-08
1783584046174274213,4454,1783584046174274213,base_link,0.0201714126662,-0.0151704744479,0.443451337167,-0.895943012909,1.0,0.0,0.0,0.0,1.0,0.0,0.0,0.0,1.0,-0.00266628712416,0.000388273969293,0.0252316109836,1.21846967915e-07,0.0,0.0,0.0,1.21846967915e-07,0.0,0.0,0.0,1.21846967915e-07,0.0,-0.3138128,9.83606995,9e-08,0.0,0.0,0.0,9e-08,0.0,0.0,0.0,9e-08
1783584046174274213,4454,1783584046174274213,base_link,0.0201714126662,-0.0151704744479,0.443451337167,-0.895943012909,1.0,0.0,0.0,0.0,1.0,0.0,0.0,0.0,1.0,-0.00266628712416,0.000388273969293,0.0252316109836,1.21846967915e-07,0.0,0.0,0.0,1.21846967915e-07,0.0,0.0,0.0,1.21846967915e-07,0.0,-0.3138128,9.83606995,9e-08,0.0,0.0,0.0,9e-08,0.0,0.0,0.0,9e-08
1783584046174274213,4454,1783584046174274213,base_link,0.0201714126662,-0.0151704744479,0.443451337167,-0.895943012909,1.0,0.0,0.0,0.0,1.0,0.0,0.0,0.0,1.0,-0.00266628712416,0.000388273969293,0.0252316109836,1.21846967915e-07,0.0,0.0,0.0,1.21846967915e-07,0.0,0.0,0.0,1.21846967915e-07,0.0,-0.3138128,9.83606995,9e-08,0.0,0.0,0.0,9e-08,0.0,0.0,0.0,9e-08
1783584046174274213,4454,1783584046174274213,base_link,0.0201714126662,-0.0151704744479,0.443451337167,-0.895943012909,1.0,0.0,0.0,0.0,1.0,0.0,0.0,0.0,1.0,-0.00266628712416,0.000388273969293,0.0252316109836,1.21846967915e-07,0.0,0.0,0.0,1.21846967915e-07,0.0,0.0,0.0,1.21846967915e-07,0.0,-0.3138128,9.83606995,9e-08,0.0,0.0,0.0,9e-08,0.0,0.0,0.0,9e-08
1783584046174274213,4454,1783584046174274213,base_link,0.0201714126662,-0.0151704744479,0.443451337167,-0.895943012909,1.0,0.0,0.0,0.0,1.0,0.0,0.0,0.0,1.0,-0.00266628712416,0.000388273969293,0.0252316109836,1.21846967915e-07,0.0,0.0,0.0,1.21846967915e-07,0.0,0.0,0.0,1.21846967915e-07,0.0,-0.3138128,9.83606995,9e-08,0.0,0.0,0.0,9e-08,0.0,0.0,0.0,9e-08
1783584046174274213,4454,1783584046174274213,base_link,0.0201714126662,-0.0151704744479,0.443451337167,-0.895943012909,1.0,0.0,0.0,0.0,1.0,0.0,0.0,0.0,1.0,-0.00266628712416,0.000388273969293,0.0252316109836,1.21846967915e-07,0.0,0.0,0.0,1.21846967915e-07,0.0,0.0,0.0,1.21846967915e-07,0.0,-0.3138128,9.83606995,9e-08,0.0,0.0,0.0,9e-08,0.0,0.0,0.0,9e-08
1783584046174274213,4454,1783584046174274213,base_link,0.0201714126662,-0.0151704744479,0.443451337167,-0.895943012909,1.0,0.0,0.0,0.0,1.0,0.0,0.0,0.0,1.0,-0.00266628712416,0.000388273969293,0.0252316109836,1.21846967915e-07,0.0,0.0,0.0,1.21846967915e-07,0.0,0.0,0.0,1.21846967915e-07,0.0,-0.3138128,9.83606995,9e-08,0.0,0.0,0.0,9e-08,0.0,0.0,0.0,9e-08
1783584046174274213,4454,1783584046174274213,base_link,0.0201714126662,-0.0151704744479,0.443451337167,-0.895943012909,1.0,0.0,0.0,0.0,1.0,0.0,0.0,0.0,1.0,-0.00266628712416,0.000388273969293,0.0252316109836,1.21846967915e-07,0.0,0.0,0.0,1.21846967915e-07,0.0,0.0,0.0,1.21846967915e-07,0.0,-0.3138128,9.83606995,9e-08,0.0,0.0,0.0,9e-08,0.0,0.0,0.0,9e-08
1783584046174274213,4454,1783584046174274213,base_link,0.0201714126662,-0.0151704744479,0.443451337167,-0.895943012909,1.0,0.0,0.0,0.0,1.0,0.0,0.0,0.0,1.0,-0.00266628712416,0.000388273969293,0.0252316109836,1.21846967915e-07,0.0,0.0,0.0,1.21846967915e-07,0.0,0.0,0.0,1.21846967915e-07,0.0,-0.3138128,9.83606995,9e-08,0.0,0.0,0.0,9e-08,0.0,0.0,0.0,9e-08
1783584046174274213,4454,1783584046174274213,base_link,0.0201714126662,-0.0151704744479,0.443451337167,-0.895943012909,1.0,0.0,0.0,0.0,1.0,0.0,0.0,0.0,1.0,-0.00266628712416,0.000388273969293,0.0252316109836,1.21846967915e-07,0.0,0.0,0.0,1.21846967915e-07,0.0,0.0,0.0,1.21846967915e-07,0.0,-0.3138128,9.83606995,9e-08,0.0,0.0,0.0,9e-08,0.0,0.0,0.0,9e-08
1783584046174274213,4454,1783584046174274213,base_link,0.0201714126662,-0.0151704744479,0.443451337167,-0.895943012909,1.0,0.0,0.0,0.0,1.0,0.0,0.0,0.0,1.0,-0.00266628712416,0.000388273969293,0.0252316109836,1.21846967915e-07,0.0,0.0,0.0,1.21846967915e-07,0.0,0.0,0.0,1.21846967915e-07,0.0,-0.3138128,9.83606995,9e-08,0.0,0.0,0.0,9e-08,0.0,0.0,0.0,9e-08
1783584046174274213,4454,1783584046174274213,base_link,0.0201714126662,-0.0151704744479,0.443451337167,-0.895943012909,1.0,0.0,0.0,0.0,1.0,0.0,0.0,0.0,1.0,-0.00266628712416,0.000388273969293,0.0252316109836,1.21846967915e-07,0.0,0.0,0.0,1.21846967915e-07,0.0,0.0,0.0,1.21846967915e-07,0.0,-0.3138128,9.83606995,9e-08,0.0,0.0,0.0,9e-08,0.0,0.0,0.0,9e-08
1783584046174274213,4454,1783584046174274213,base_link,0.0201714126662,-0.0151704744479,0.443451337167,-0.895943012909,1.0,0.0,0.0,0.0,1.0,0.0,0.0,0.0,1.0,-0.00266628712416,0.000388273969293,0.0252316109836,1.21846967915e-07,0.0,0.0,0.0,1.21846967915e-07,0.0,0.0,0.0,1.21846967915e-07,0.0,-0.3138128,9.83606995,9e-08,0.0,0.0,0.0,9e-08,0.0,0.0,0.0,9e-08
1783584046174274213,4454,1783584046174274213,base_link,0.0201714126662,-0.0151704744479,0.443451337167,-0.895943012909,1.0,0.0,0.0,0.0,1.0,0.0,0.0,0.0,1.0,-0.00266628712416,0.000388273969293,0.0252316109836,1.21846967915e-07,0.0,0.0,0.0,1.21846967915e-07,0.0,0.0,0.0,1.21846967915e-07,0.0,-0.3138128,9.83606995,9e-08,0.0,0.0,0.0,9e-08,0.0,0.0,0.0,9e-08
1783584046434274213,4455,1783584046434274213,base_link,0.0198467759896,-0.0153135503735,0.439956482895,-0.897669144962,1.0,0.0,0.0,0.0,1.0,0.0,0.0,0.0,1.0,-0.00139441364445,0.00507400743663,0.0279513373971,1.21846967915e-07,0.0,0.0,0.0,1.21846967915e-07,0.0,0.0,0.0,1.21846967915e-07,0.0,-0.3138128,9.83606995,9e-08,0.0,0.0,0.0,9e-08,0.0,0.0,0.0,9e-08
1783584046434274213,4455,1783584046434274213,base_link,0.0198467759896,-0.0153135503735,0.439956482895,-0.897669144962,1.0,0.0,0.0,0.0,1.0,0.0,0.0,0.0,1.0,-0.00139441364445,0.00507400743663,0.0279513373971,1.21846967915e-07,0.0,0.0,0.0,1.21846967915e-07,0.0,0.0,0.0,1.21846967915e-07,0.0,-0.3138128,9.83606995,9e-08,0.0,0.0,0.0,9e-08,0.0,0.0,0.0,9e-08
1783584046434274213,4455,1783584046434274213,base_link,0.0198467759896,-0.0153135503735,0.439956482895,-0.897669144962,1.0,0.0,0.0,0.0,1.0,0.0,0.0,0.0,1.0,-0.00139441364445,0.00507400743663,0.0279513373971,1.21846967915e-07,0.0,0.0,0.0,1.21846967915e-07,0.0,0.0,0.0,1.21846967915e-07,0.0,-0.3138128,9.83606995,9e-08,0.0,0.0,0.0,9e-08,0.0,0.0,0.0,9e-08
1783584046434274213,4455,1783584046434274213,base_link,0.0198467759896,-0.0153135503735,0.439956482895,-0.897669144962,1.0,0.0,0.0,0.0,1.0,0.0,0.0,0.0,1.0,-0.00139441364445,0.00507400743663,0.0279513373971,1.21846967915e-07,0.0,0.0,0.0,1.21846967915e-07,0.0,0.0,0.0,1.21846967915e-07,0.0,-0.3138128,9.83606995,9e-08,0.0,0.0,0.0,9e-08,0.0,0.0,0.0,9e-08
1783584046434274213,4455,1783584046434274213,base_link,0.0198467759896,-0.0153135503735,0.439956482895,-0.897669144962,1.0,0.0,0.0,0.0,1.0,0.0,0.0,0.0,1.0,-0.00139441364445,0.00507400743663,0.0279513373971,1.21846967915e-07,0.0,0.0,0.0,1.21846967915e-07,0.0,0.0,0.0,1.21846967915e-07,0.0,-0.3138128,9.83606995,9e-08,0.0,0.0,0.0,9e-08,0.0,0.0,0.0,9e-08
1783584046434274213,4455,1783584046434274213,base_link,0.0198467759896,-0.0153135503735,0.439956482895,-0.897669144962,1.0,0.0,0.0,0.0,1.0,0.0,0.0,0.0,1.0,-0.00139441364445,0.00507400743663,0.0279513373971,1.21846967915e-07,0.0,0.0,0.0,1.21846967915e-07,0.0,0.0,0.0,1.21846967915e-07,0.0,-0.3138128,9.83606995,9e-08,0.0,0.0,0.0,9e-08,0.0,0.0,0.0,9e-08
1783584046434274213,4455,1783584046434274213,base_link,0.0198467759896,-0.0153135503735,0.439956482895,-0.897669144962,1.0,0.0,0.0,0.0,1.0,0.0,0.0,0.0,1.0,-0.00139441364445,0.00507400743663,0.0279513373971,1.21846967915e-07,0.0,0.0,0.0,1.21846967915e-07,0.0,0.0,0.0,1.21846967915e-07,0.0,-0.3138128,9.83606995,9e-08,0.0,0.0,0.0,9e-08,0.0,0.0,0.0,9e-08
1783584046434274213,4455,1783584046434274213,base_link,0.0198467759896,-0.0153135503735,0.439956482895,-0.897669144962,1.0,0.0,0.0,0.0,1.0,0.0,0.0,0.0,1.0,-0.00139441364445,0.00507400743663,0.0279513373971,1.21846967915e-07,0.0,0.0,0.0,1.21846967915e-07,0.0,0.0,0.0,1.21846967915e-07,0.0,-0.3138128,9.83606995,9e-08,0.0,0.0,0.0,9e-08,0.0,0.0,0.0,9e-08
1783584046434274213,4455,1783584046434274213,base_link,0.0198467759896,-0.0153135503735,0.439956482895,-0.897669144962,1.0,0.0,0.0,0.0,1.0,0.0,0.0,0.0,1.0,-0.00139441364445,0.00507400743663,0.0279513373971,1.21846967915e-07,0.0,0.0,0.0,1.21846967915e-07,0.0,0.0,0.0,1.21846967915e-07,0.0,-0.3138128,9.83606995,9e-08,0.0,0.0,0.0,9e-08,0.0,0.0,0.0,9e-08
1783584046434274213,4455,1783584046434274213,base_link,0.0198467759896,-0.0153135503735,0.439956482895,-0.897669144962,1.0,0.0,0.0,0.0,1.0,0.0,0.0,0.0,1.0,-0.00139441364445,0.00507400743663,0.0279513373971,1.21846967915e-07,0.0,0.0,0.0,1.21846967915e-07,0.0,0.0,0.0,1.21846967915e-07,0.0,-0.3138128,9.83606995,9e-08,0.0,0.0,0.0,9e-08,0.0,0.0,0.0,9e-08
1783584046434274213,4455,1783584046434274213,base_link,0.0198467759896,-0.0153135503735,0.439956482895,-0.897669144962,1.0,0.0,0.0,0.0,1.0,0.0,0.0,0.0,1.0,-0.00139441364445,0.00507400743663,0.0279513373971,1.21846967915e-07,0.0,0.0,0.0,1.21846967915e-07,0.0,0.0,0.0,1.21846967915e-07,0.0,-0.3138128,9.83606995,9e-08,0.0,0.0,0.0,9e-08,0.0,0.0,0.0,9e-08
1783584046434274213,4455,1783584046434274213,base_link,0.0198467759896,-0.0153135503735,0.439956482895,-0.897669144962,1.0,0.0,0.0,0.0,1.0,0.0,0.0,0.0,1.0,-0.00139441364445,0.00507400743663,0.0279513373971,1.21846967915e-07,0.0,0.0,0.0,1.21846967915e-07,0.0,0.0,0.0,1.21846967915e-07,0.0,-0.3138128,9.83606995,9e-08,0.0,0.0,0.0,9e-08,0.0,0.0,0.0,9e-08
1783584046434274213,4455,1783584046434274213,base_link,0.0198467759896,-0.0153135503735,0.439956482895,-0.897669144962,1.0,0.0,0.0,0.0,1.0,0.0,0.0,0.0,1.0,-0.00139441364445,0.00507400743663,0.0279513373971,1.21846967915e-07,0.0,0.0,0.0,1.21846967915e-07,0.0,0.0,0.0,1.21846967915e-07,0.0,-0.3138128,9.83606995,9e-08,0.0,0.0,0.0,9e-08,0.0,0.0,0.0,9e-08
1783584046434274213,4455,1783584046434274213,base_link,0.0198467759896,-0.0153135503735,0.439956482895,-0.897669144962,1.0,0.0,0.0,0.0,1.0,0.0,0.0,0.0,1.0,-0.00139441364445,0.00507400743663,0.0279513373971,1.21846967915e-07,0.0,0.0,0.0,1.21846967915e-07,0.0,0.0,0.0,1.21846967915e-07,0.0,-0.3138128,9.83606995,9e-08,0.0,0.0,0.0,9e-08,0.0,0.0,0.0,9e-08
1783584046434274213,4455,1783584046434274213,base_link,0.0198467759896,-0.0153135503735,0.439956482895,-0.897669144962,1.0,0.0,0.0,0.0,1.0,0.0,0.0,0.0,1.0,-0.00139441364445,0.00507400743663,0.0279513373971,1.21846967915e-07,0.0,0.0,0.0,1.21846967915e-07,0.0,0.0,0.0,1.21846967915e-07,0.0,-0.3138128,9.83606995,9e-08,0.0,0.0,0.0,9e-08,0.0,0.0,0.0,9e-08
1783584046434274213,4455,1783584046434274213,base_link,0.0198467759896,-0.0153135503735,0.439956482895,-0.897669144962,1.0,0.0,0.0,0.0,1.0,0.0,0.0,0.0,1.0,-0.00139441364445,0.00507400743663,0.0279513373971,1.21846967915e-07,0.0,0.0,0.0,1.21846967915e-07,0.0,0.0,0.0,1.21846967915e-07,0.0,-0.3138128,9.83606995,9e-08,0.0,0.0,0.0,9e-08,0.0,0.0,0.0,9e-08
1783584046434274213,4455,1783584046434274213,base_link,0.0198467759896,-0.0153135503735,0.439956482895,-0.897669144962,1.0,0.0,0.0,0.0,1.0,0.0,0.0,0.0,1.0,-0.00139441364445,0.00507400743663,0.0279513373971,1.21846967915e-07,0.0,0.0,0.0,1.21846967915e-07,0.0,0.0,0.0,1.21846967915e-07,0.0,-0.3138128,9.83606995,9e-08,0.0,0.0,0.0,9e-08,0.0,0.0,0.0,9e-08
1783584046434274213,4455,1783584046434274213,base_link,0.0198467759896,-0.0153135503735,0.439956482895,-0.897669144962,1.0,0.0,0.0,0.0,1.0,0.0,0.0,0.0,1.0,-0.00139441364445,0.00507400743663,0.0279513373971,1.21846967915e-07,0.0,0.0,0.0,1.21846967915e-07,0.0,0.0,0.0,1.21846967915e-07,0.0,-0.3138128,9.83606995,9e-08,0.0,0.0,0.0,9e-08,0.0,0.0,0.0,9e-08
1783584046434274213,4455,1783584046434274213,base_link,0.0198467759896,-0.0153135503735,0.439956482895,-0.897669144962,1.0,0.0,0.0,0.0,1.0,0.0,0.0,0.0,1.0,-0.00139441364445,0.00507400743663,0.0279513373971,1.21846967915e-07,0.0,0.0,0.0,1.21846967915e-07,0.0,0.0,0.0,1.21846967915e-07,0.0,-0.3138128,9.83606995,9e-08,0.0,0.0,0.0,9e-08,0.0,0.0,0.0,9e-08
1783584046434274213,4455,1783584046434274213,base_link,0.0198467759896,-0.0153135503735,0.439956482895,-0.897669144962,1.0,0.0,0.0,0.0,1.0,0.0,0.0,0.0,1.0,-0.00139441364445,0.00507400743663,0.0279513373971,1.21846967915e-07,0.0,0.0,0.0,1.21846967915e-07,0.0,0.0,0.0,1.21846967915e-07,0.0,-0.3138128,9.83606995,9e-08,0.0,0.0,0.0,9e-08,0.0,0.0,0.0,9e-08
1783584046434274213,4455,1783584046434274213,base_link,0.0198467759896,-0.0153135503735,0.439956482895,-0.897669144962,1.0,0.0,0.0,0.0,1.0,0.0,0.0,0.0,1.0,-0.00139441364445,0.00507400743663,0.0279513373971,1.21846967915e-07,0.0,0.0,0.0,1.21846967915e-07,0.0,0.0,0.0,1.21846967915e-07,0.0,-0.3138128,9.83606995,9e-08,0.0,0.0,0.0,9e-08,0.0,0.0,0.0,9e-08
1783584046434274213,4455,1783584046434274213,base_link,0.0198467759896,-0.0153135503735,0.439956482895,-0.897669144962,1.0,0.0,0.0,0.0,1.0,0.0,0.0,0.0,1.0,-0.00139441364445,0.00507400743663,0.0279513373971,1.21846967915e-07,0.0,0.0,0.0,1.21846967915e-07,0.0,0.0,0.0,1.21846967915e-07,0.0,-0.3138128,9.83606995,9e-08,0.0,0.0,0.0,9e-08,0.0,0.0,0.0,9e-08
1783584046434274213,4455,1783584046434274213,base_link,0.0198467759896,-0.0153135503735,0.439956482895,-0.897669144962,1.0,0.0,0.0,0.0,1.0,0.0,0.0,0.0,1.0,-0.00139441364445,0.00507400743663,0.0279513373971,1.21846967915e-07,0.0,0.0,0.0,1.21846967915e-07,0.0,0.0,0.0,1.21846967915e-07,0.0,-0.3138128,9.83606995,9e-08,0.0,0.0,0.0,9e-08,0.0,0.0,0.0,9e-08
1783584046434274213,4455,1783584046434274213,base_link,0.0198467759896,-0.0153135503735,0.439956482895,-0.897669144962,1.0,0.0,0.0,0.0,1.0,0.0,0.0,0.0,1.0,-0.00139441364445,0.00507400743663,0.0279513373971,1.21846967915e-07,0.0,0.0,0.0,1.21846967915e-07,0.0,0.0,0.0,1.21846967915e-07,0.0,-0.3138128,9.83606995,9e-08,0.0,0.0,0.0,9e-08,0.0,0.0,0.0,9e-08
1783584046674178754,4456,1783584046674178754,base_link,0.0203512915947,-0.0154494013394,0.436714457,-0.899237245656,1.0,0.0,0.0,0.0,1.0,0.0,0.0,0.0,1.0,-0.00653820019215,-0.00128170475364,0.0286514945328,1.21846967915e-07,0.0,0.0,0.0,1.21846967915e-07,0.0,0.0,0.0,1.21846967915e-07,-0.00980665,-0.3334261,9.83606995,9e-08,0.0,0.0,0.0,9e-08,0.0,0.0,0.0,9e-08
1783584046674178754,4456,1783584046674178754,base_link,0.0203512915947,-0.0154494013394,0.436714457,-0.899237245656,1.0,0.0,0.0,0.0,1.0,0.0,0.0,0.0,1.0,-0.00653820019215,-0.00128170475364,0.0286514945328,1.21846967915e-07,0.0,0.0,0.0,1.21846967915e-07,0.0,0.0,0.0,1.21846967915e-07,-0.00980665,-0.3334261,9.83606995,9e-08,0.0,0.0,0.0,9e-08,0.0,0.0,0.0,9e-08
1783584046674178754,4456,1783584046674178754,base_link,0.0203512915947,-0.0154494013394,0.436714457,-0.899237245656,1.0,0.0,0.0,0.0,1.0,0.0,0.0,0.0,1.0,-0.00653820019215,-0.00128170475364,0.0286514945328,1.21846967915e-07,0.0,0.0,0.0,1.21846967915e-07,0.0,0.0,0.0,1.21846967915e-07,-0.00980665,-0.3334261,9.83606995,9e-08,0.0,0.0,0.0,9e-08,0.0,0.0,0.0,9e-08
1783584046674178754,4456,1783584046674178754,base_link,0.0203512915947,-0.0154494013394,0.436714457,-0.899237245656,1.0,0.0,0.0,0.0,1.0,0.0,0.0,0.0,1.0,-0.00653820019215,-0.00128170475364,0.0286514945328,1.21846967915e-07,0.0,0.0,0.0,1.21846967915e-07,0.0,0.0,0.0,1.21846967915e-07,-0.00980665,-0.3334261,9.83606995,9e-08,0.0,0.0,0.0,9e-08,0.0,0.0,0.0,9e-08
1783584046674178754,4456,1783584046674178754,base_link,0.0203512915947,-0.0154494013394,0.436714457,-0.899237245656,1.0,0.0,0.0,0.0,1.0,0.0,0.0,0.0,1.0,-0.00653820019215,-0.00128170475364,0.0286514945328,1.21846967915e-07,0.0,0.0,0.0,1.21846967915e-07,0.0,0.0,0.0,1.21846967915e-07,-0.00980665,-0.3334261,9.83606995,9e-08,0.0,0.0,0.0,9e-08,0.0,0.0,0.0,9e-08
1783584046674178754,4456,1783584046674178754,base_link,0.0203512915947,-0.0154494013394,0.436714457,-0.899237245656,1.0,0.0,0.0,0.0,1.0,0.0,0.0,0.0,1.0,-0.00653820019215,-0.00128170475364,0.0286514945328,1.21846967915e-07,0.0,0.0,0.0,1.21846967915e-07,0.0,0.0,0.0,1.21846967915e-07,-0.00980665,-0.3334261,9.83606995,9e-08,0.0,0.0,0.0,9e-08,0.0,0.0,0.0,9e-08
1783584046674178754,4456,1783584046674178754,base_link,0.0203512915947,-0.0154494013394,0.436714457,-0.899237245656,1.0,0.0,0.0,0.0,1.0,0.0,0.0,0.0,1.0,-0.00653820019215,-0.00128170475364,0.0286514945328,1.21846967915e-07,0.0,0.0,0.0,1.21846967915e-07,0.0,0.0,0.0,1.21846967915e-07,-0.00980665,-0.3334261,9.83606995,9e-08,0.0,0.0,0.0,9e-08,0.0,0.0,0.0,9e-08
1783584046674178754,4456,1783584046674178754,base_link,0.0203512915947,-0.0154494013394,0.436714457,-0.899237245656,1.0,0.0,0.0,0.0,1.0,0.0,0.0,0.0,1.0,-0.00653820019215,-0.00128170475364,0.0286514945328,1.21846967915e-07,0.0,0.0,0.0,1.21846967915e-07,0.0,0.0,0.0,1.21846967915e-07,-0.00980665,-0.3334261,9.83606995,9e-08,0.0,0.0,0.0,9e-08,0.0,0.0,0.0,9e-08
1783584046674178754,4456,1783584046674178754,base_link,0.0203512915947,-0.0154494013394,0.436714457,-0.899237245656,1.0,0.0,0.0,0.0,1.0,0.0,0.0,0.0,1.0,-0.00653820019215,-0.00128170475364,0.0286514945328,1.21846967915e-07,0.0,0.0,0.0,1.21846967915e-07,0.0,0.0,0.0,1.21846967915e-07,-0.00980665,-0.3334261,9.83606995,9e-08,0.0,0.0,0.0,9e-08,0.0,0.0,0.0,9e-08
1783584046674178754,4456,1783584046674178754,base_link,0.0203512915947,-0.0154494013394,0.436714457,-0.899237245656,1.0,0.0,0.0,0.0,1.0,0.0,0.0,0.0,1.0,-0.00653820019215,-0.00128170475364,0.0286514945328,1.21846967915e-07,0.0,0.0,0.0,1.21846967915e-07,0.0,0.0,0.0,1.21846967915e-07,-0.00980665,-0.3334261,9.83606995,9e-08,0.0,0.0,0.0,9e-08,0.0,0.0,0.0,9e-08
1783584046674178754,4456,1783584046674178754,base_link,0.0203512915947,-0.0154494013394,0.436714457,-0.899237245656,1.0,0.0,0.0,0.0,1.0,0.0,0.0,0.0,1.0,-0.00653820019215,-0.00128170475364,0.0286514945328,1.21846967915e-07,0.0,0.0,0.0,1.21846967915e-07,0.0,0.0,0.0,1.21846967915e-07,-0.00980665,-0.3334261,9.83606995,9e-08,0.0,0.0,0.0,9e-08,0.0,0.0,0.0,9e-08
1783584046674178754,4456,1783584046674178754,base_link,0.0203512915947,-0.0154494013394,0.436714457,-0.899237245656,1.0,0.0,0.0,0.0,1.0,0.0,0.0,0.0,1.0,-0.00653820019215,-0.00128170475364,0.0286514945328,1.21846967915e-07,0.0,0.0,0.0,1.21846967915e-07,0.0,0.0,0.0,1.21846967915e-07,-0.00980665,-0.3334261,9.83606995,9e-08,0.0,0.0,0.0,9e-08,0.0,0.0,0.0,9e-08
1783584046674178754,4456,1783584046674178754,base_link,0.0203512915947,-0.0154494013394,0.436714457,-0.899237245656,1.0,0.0,0.0,0.0,1.0,0.0,0.0,0.0,1.0,-0.00653820019215,-0.00128170475364,0.0286514945328,1.21846967915e-07,0.0,0.0,0.0,1.21846967915e-07,0.0,0.0,0.0,1.21846967915e-07,-0.00980665,-0.3334261,9.83606995,9e-08,0.0,0.0,0.0,9e-08,0.0,0.0,0.0,9e-08
1783584046674178754,4456,1783584046674178754,base_link,0.0203512915947,-0.0154494013394,0.436714457,-0.899237245656,1.0,0.0,0.0,0.0,1.0,0.0,0.0,0.0,1.0,-0.00653820019215,-0.00128170475364,0.0286514945328,1.21846967915e-07,0.0,0.0,0.0,1.21846967915e-07,0.0,0.0,0.0,1.21846967915e-07,-0.00980665,-0.3334261,9.83606995,9e-08,0.0,0.0,0.0,9e-08,0.0,0.0,0.0,9e-08
1783584046674178754,4456,1783584046674178754,base_link,0.0203512915947,-0.0154494013394,0.436714457,-0.899237245656,1.0,0.0,0.0,0.0,1.0,0.0,0.0,0.0,1.0,-0.00653820019215,-0.00128170475364,0.0286514945328,1.21846967915e-07,0.0,0.0,0.0,1.21846967915e-07,0.0,0.0,0.0,1.21846967915e-07,-0.00980665,-0.3334261,9.83606995,9e-08,0.0,0.0,0.0,9e-08,0.0,0.0,0.0,9e-08
1783584046674178754,4456,1783584046674178754,base_link,0.0203512915947,-0.0154494013394,0.436714457,-0.899237245656,1.0,0.0,0.0,0.0,1.0,0.0,0.0,0.0,1.0,-0.00653820019215,-0.00128170475364,0.0286514945328,1.21846967915e-07,0.0,0.0,0.0,1.21846967915e-07,0.0,0.0,0.0,1.21846967915e-07,-0.00980665,-0.3334261,9.83606995,9e-08,0.0,0.0,0.0,9e-08,0.0,0.0,0.0,9e-08
1783584046674178754,4456,1783584046674178754,base_link,0.0203512915947,-0.0154494013394,0.436714457,-0.899237245656,1.0,0.0,0.0,0.0,1.0,0.0,0.0,0.0,1.0,-0.00653820019215,-0.00128170475364,0.0286514945328,1.21846967915e-07,0.0,0.0,0.0,1.21846967915e-07,0.0,0.0,0.0,1.21846967915e-07,-0.00980665,-0.3334261,9.83606995,9e-08,0.0,0.0,0.0,9e-08,0.0,0.0,0.0,9e-08
1783584046674178754,4456,1783584046674178754,base_link,0.0203512915947,-0.0154494013394,0.436714457,-0.899237245656,1.0,0.0,0.0,0.0,1.0,0.0,0.0,0.0,1.0,-0.00653820019215,-0.00128170475364,0.0286514945328,1.21846967915e-07,0.0,0.0,0.0,1.21846967915e-07,0.0,0.0,0.0,1.21846967915e-07,-0.00980665,-0.3334261,9.83606995,9e-08,0.0,0.0,0.0,9e-08,0.0,0.0,0.0,9e-08
1783584046674178754,4456,1783584046674178754,base_link,0.0203512915947,-0.0154494013394,0.436714457,-0.899237245656,1.0,0.0,0.0,0.0,1.0,0.0,0.0,0.0,1.0,-0.00653820019215,-0.00128170475364,0.0286514945328,1.21846967915e-07,0.0,0.0,0.0,1.21846967915e-07,0.0,0.0,0.0,1.21846967915e-07,-0.00980665,-0.3334261,9.83606995,9e-08,0.0,0.0,0.0,9e-08,0.0,0.0,0.0,9e-08
1783584046674178754,4456,1783584046674178754,base_link,0.0203512915947,-0.0154494013394,0.436714457,-0.899237245656,1.0,0.0,0.0,0.0,1.0,0.0,0.0,0.0,1.0,-0.00653820019215,-0.00128170475364,0.0286514945328,1.21846967915e-07,0.0,0.0,0.0,1.21846967915e-07,0.0,0.0,0.0,1.21846967915e-07,-0.00980665,-0.3334261,9.83606995,9e-08,0.0,0.0,0.0,9e-08,0.0,0.0,0.0,9e-08
1783584046674178754,4456,1783584046674178754,base_link,0.0203512915947,-0.0154494013394,0.436714457,-0.899237245656,1.0,0.0,0.0,0.0,1.0,0.0,0.0,0.0,1.0,-0.00653820019215,-0.00128170475364,0.0286514945328,1.21846967915e-07,0.0,0.0,0.0,1.21846967915e-07,0.0,0.0,0.0,1.21846967915e-07,-0.00980665,-0.3334261,9.83606995,9e-08,0.0,0.0,0.0,9e-08,0.0,0.0,0.0,9e-08
1783584046674178754,4456,1783584046674178754,base_link,0.0203512915947,-0.0154494013394,0.436714457,-0.899237245656,1.0,0.0,0.0,0.0,1.0,0.0,0.0,0.0,1.0,-0.00653820019215,-0.00128170475364,0.0286514945328,1.21846967915e-07,0.0,0.0,0.0,1.21846967915e-07,0.0,0.0,0.0,1.21846967915e-07,-0.00980665,-0.3334261,9.83606995,9e-08,0.0,0.0,0.0,9e-08,0.0,0.0,0.0,9e-08
1783584046674178754,4456,1783584046674178754,base_link,0.0203512915947,-0.0154494013394,0.436714457,-0.899237245656,1.0,0.0,0.0,0.0,1.0,0.0,0.0,0.0,1.0,-0.00653820019215,-0.00128170475364,0.0286514945328,1.21846967915e-07,0.0,0.0,0.0,1.21846967915e-07,0.0,0.0,0.0,1.21846967915e-07,-0.00980665,-0.3334261,9.83606995,9e-08,0.0,0.0,0.0,9e-08,0.0,0.0,0.0,9e-08
1783584046674178754,4456,1783584046674178754,base_link,0.0203512915947,-0.0154494013394,0.436714457,-0.899237245656,1.0,0.0,0.0,0.0,1.0,0.0,0.0,0.0,1.0,-0.00653820019215,-0.00128170475364,0.0286514945328,1.21846967915e-07,0.0,0.0,0.0,1.21846967915e-07,0.0,0.0,0.0,1.21846967915e-07,-0.00980665,-0.3334261,9.83606995,9e-08,0.0,0.0,0.0,9e-08,0.0,0.0,0.0,9e-08
1783584046674178754,4456,1783584046674178754,base_link,0.0203512915947,-0.0154494013394,0.436714457,-0.899237245656,1.0,0.0,0.0,0.0,1.0,0.0,0.0,0.0,1.0,-0.00653820019215,-0.00128170475364,0.0286514945328,1.21846967915e-07,0.0,0.0,0.0,1.21846967915e-07,0.0,0.0,0.0,1.21846967915e-07,-0.00980665,-0.3334261,9.83606995,9e-08,0.0,0.0,0.0,9e-08,0.0,0.0,0.0,9e-08
1783584046674178754,4456,1783584046674178754,base_link,0.0203512915947,-0.0154494013394,0.436714457,-0.899237245656,1.0,0.0,0.0,0.0,1.0,0.0,0.0,0.0,1.0,-0.00653820019215,-0.00128170475364,0.0286514945328,1.21846967915e-07,0.0,0.0,0.0,1.21846967915e-07,0.0,0.0,0.0,1.21846967915e-07,-0.00980665,-0.3334261,9.83606995,9e-08,0.0,0.0,0.0,9e-08,0.0,0.0,0.0,9e-08
1783584046933178754,4457,1783584046933178754,base_link,0.0202889911499,-0.0151306314248,0.433263999373,-0.900911609248,1.0,0.0,0.0,0.0,1.0,0.0,0.0,0.0,1.0,-0.00369092239998,0.00121521763504,0.0278887413442,1.21846967915e-07,0.0,0.0,0.0,1.21846967915e-07,0.0,0.0,0.0,1.21846967915e-07,-0.00980665,-0.3334261,9.83606995,9e-08,0.0,0.0,0.0,9e-08,0.0,0.0,0.0,9e-08
1783584046933178754,4457,1783584046933178754,base_link,0.0202889911499,-0.0151306314248,0.433263999373,-0.900911609248,1.0,0.0,0.0,0.0,1.0,0.0,0.0,0.0,1.0,-0.00369092239998,0.00121521763504,0.0278887413442,1.21846967915e-07,0.0,0.0,0.0,1.21846967915e-07,0.0,0.0,0.0,1.21846967915e-07,-0.00980665,-0.3334261,9.83606995,9e-08,0.0,0.0,0.0,9e-08,0.0,0.0,0.0,9e-08
1783584046933178754,4457,1783584046933178754,base_link,0.0202889911499,-0.0151306314248,0.433263999373,-0.900911609248,1.0,0.0,0.0,0.0,1.0,0.0,0.0,0.0,1.0,-0.00369092239998,0.00121521763504,0.0278887413442,1.21846967915e-07,0.0,0.0,0.0,1.21846967915e-07,0.0,0.0,0.0,1.21846967915e-07,-0.00980665,-0.3334261,9.83606995,9e-08,0.0,0.0,0.0,9e-08,0.0,0.0,0.0,9e-08
1783584046933178754,4457,1783584046933178754,base_link,0.0202889911499,-0.0151306314248,0.433263999373,-0.900911609248,1.0,0.0,0.0,0.0,1.0,0.0,0.0,0.0,1.0,-0.00369092239998,0.00121521763504,0.0278887413442,1.21846967915e-07,0.0,0.0,0.0,1.21846967915e-07,0.0,0.0,0.0,1.21846967915e-07,-0.00980665,-0.3334261,9.83606995,9e-08,0.0,0.0,0.0,9e-08,0.0,0.0,0.0,9e-08
1783584046933178754,4457,1783584046933178754,base_link,0.0202889911499,-0.0151306314248,0.433263999373,-0.900911609248,1.0,0.0,0.0,0.0,1.0,0.0,0.0,0.0,1.0,-0.00369092239998,0.00121521763504,0.0278887413442,1.21846967915e-07,0.0,0.0,0.0,1.21846967915e-07,0.0,0.0,0.0,1.21846967915e-07,-0.00980665,-0.3334261,9.83606995,9e-08,0.0,0.0,0.0,9e-08,0.0,0.0,0.0,9e-08
1783584046933178754,4457,1783584046933178754,base_link,0.0202889911499,-0.0151306314248,0.433263999373,-0.900911609248,1.0,0.0,0.0,0.0,1.0,0.0,0.0,0.0,1.0,-0.00369092239998,0.00121521763504,0.0278887413442,1.21846967915e-07,0.0,0.0,0.0,1.21846967915e-07,0.0,0.0,0.0,1.21846967915e-07,-0.00980665,-0.3334261,9.83606995,9e-08,0.0,0.0,0.0,9e-08,0.0,0.0,0.0,9e-08
1783584046933178754,4457,1783584046933178754,base_link,0.0202889911499,-0.0151306314248,0.433263999373,-0.900911609248,1.0,0.0,0.0,0.0,1.0,0.0,0.0,0.0,1.0,-0.00369092239998,0.00121521763504,0.0278887413442,1.21846967915e-07,0.0,0.0,0.0,1.21846967915e-07,0.0,0.0,0.0,1.21846967915e-07,-0.00980665,-0.3334261,9.83606995,9e-08,0.0,0.0,0.0,9e-08,0.0,0.0,0.0,9e-08
1783584046933178754,4457,1783584046933178754,base_link,0.0202889911499,-0.0151306314248,0.433263999373,-0.900911609248,1.0,0.0,0.0,0.0,1.0,0.0,0.0,0.0,1.0,-0.00369092239998,0.00121521763504,0.0278887413442,1.21846967915e-07,0.0,0.0,0.0,1.21846967915e-07,0.0,0.0,0.0,1.21846967915e-07,-0.00980665,-0.3334261,9.83606995,9e-08,0.0,0.0,0.0,9e-08,0.0,0.0,0.0,9e-08
1783584046933178754,4457,1783584046933178754,base_link,0.0202889911499,-0.0151306314248,0.433263999373,-0.900911609248,1.0,0.0,0.0,0.0,1.0,0.0,0.0,0.0,1.0,-0.00369092239998,0.00121521763504,0.0278887413442,1.21846967915e-07,0.0,0.0,0.0,1.21846967915e-07,0.0,0.0,0.0,1.21846967915e-07,-0.00980665,-0.3334261,9.83606995,9e-08,0.0,0.0,0.0,9e-08,0.0,0.0,0.0,9e-08
1783584046933178754,4457,1783584046933178754,base_link,0.0202889911499,-0.0151306314248,0.433263999373,-0.900911609248,1.0,0.0,0.0,0.0,1.0,0.0,0.0,0.0,1.0,-0.00369092239998,0.00121521763504,0.0278887413442,1.21846967915e-07,0.0,0.0,0.0,1.21846967915e-07,0.0,0.0,0.0,1.21846967915e-07,-0.00980665,-0.3334261,9.83606995,9e-08,0.0,0.0,0.0,9e-08,0.0,0.0,0.0,9e-08
1783584046933178754,4457,1783584046933178754,base_link,0.0202889911499,-0.0151306314248,0.433263999373,-0.900911609248,1.0,0.0,0.0,0.0,1.0,0.0,0.0,0.0,1.0,-0.00369092239998,0.00121521763504,0.0278887413442,1.21846967915e-07,0.0,0.0,0.0,1.21846967915e-07,0.0,0.0,0.0,1.21846967915e-07,-0.00980665,-0.3334261,9.83606995,9e-08,0.0,0.0,0.0,9e-08,0.0,0.0,0.0,9e-08
1783584046933178754,4457,1783584046933178754,base_link,0.0202889911499,-0.0151306314248,0.433263999373,-0.900911609248,1.0,0.0,0.0,0.0,1.0,0.0,0.0,0.0,1.0,-0.00369092239998,0.00121521763504,0.0278887413442,1.21846967915e-07,0.0,0.0,0.0,1.21846967915e-07,0.0,0.0,0.0,1.21846967915e-07,-0.00980665,-0.3334261,9.83606995,9e-08,0.0,0.0,0.0,9e-08,0.0,0.0,0.0,9e-08
1783584046933178754,4457,1783584046933178754,base_link,0.0202889911499,-0.0151306314248,0.433263999373,-0.900911609248,1.0,0.0,0.0,0.0,1.0,0.0,0.0,0.0,1.0,-0.00369092239998,0.00121521763504,0.0278887413442,1.21846967915e-07,0.0,0.0,0.0,1.21846967915e-07,0.0,0.0,0.0,1.21846967915e-07,-0.00980665,-0.3334261,9.83606995,9e-08,0.0,0.0,0.0,9e-08,0.0,0.0,0.0,9e-08
1783584046933178754,4457,1783584046933178754,base_link,0.0202889911499,-0.0151306314248,0.433263999373,-0.900911609248,1.0,0.0,0.0,0.0,1.0,0.0,0.0,0.0,1.0,-0.00369092239998,0.00121521763504,0.0278887413442,1.21846967915e-07,0.0,0.0,0.0,1.21846967915e-07,0.0,0.0,0.0,1.21846967915e-07,-0.00980665,-0.3334261,9.83606995,9e-08,0.0,0.0,0.0,9e-08,0.0,0.0,0.0,9e-08
1783584046933178754,4457,1783584046933178754,base_link,0.0202889911499,-0.0151306314248,0.433263999373,-0.900911609248,1.0,0.0,0.0,0.0,1.0,0.0,0.0,0.0,1.0,-0.00369092239998,0.00121521763504,0.0278887413442,1.21846967915e-07,0.0,0.0,0.0,1.21846967915e-07,0.0,0.0,0.0,1.21846967915e-07,-0.00980665,-0.3334261,9.83606995,9e-08,0.0,0.0,0.0,9e-08,0.0,0.0,0.0,9e-08
1783584046933178754,4457,1783584046933178754,base_link,0.0202889911499,-0.0151306314248,0.433263999373,-0.900911609248,1.0,0.0,0.0,0.0,1.0,0.0,0.0,0.0,1.0,-0.00369092239998,0.00121521763504,0.0278887413442,1.21846967915e-07,0.0,0.0,0.0,1.21846967915e-07,0.0,0.0,0.0,1.21846967915e-07,-0.00980665,-0.3334261,9.83606995,9e-08,0.0,0.0,0.0,9e-08,0.0,0.0,0.0,9e-08
1783584046933178754,4457,1783584046933178754,base_link,0.0202889911499,-0.0151306314248,0.433263999373,-0.900911609248,1.0,0.0,0.0,0.0,1.0,0.0,0.0,0.0,1.0,-0.00369092239998,0.00121521763504,0.0278887413442,1.21846967915e-07,0.0,0.0,0.0,1.21846967915e-07,0.0,0.0,0.0,1.21846967915e-07,-0.00980665,-0.3334261,9.83606995,9e-08,0.0,0.0,0.0,9e-08,0.0,0.0,0.0,9e-08
1783584046933178754,4457,1783584046933178754,base_link,0.0202889911499,-0.0151306314248,0.433263999373,-0.900911609248,1.0,0.0,0.0,0.0,1.0,0.0,0.0,0.0,1.0,-0.00369092239998,0.00121521763504,0.0278887413442,1.21846967915e-07,0.0,0.0,0.0,1.21846967915e-07,0.0,0.0,0.0,1.21846967915e-07,-0.00980665,-0.3334261,9.83606995,9e-08,0.0,0.0,0.0,9e-08,0.0,0.0,0.0,9e-08
1783584046933178754,4457,1783584046933178754,base_link,0.0202889911499,-0.0151306314248,0.433263999373,-0.900911609248,1.0,0.0,0.0,0.0,1.0,0.0,0.0,0.0,1.0,-0.00369092239998,0.00121521763504,0.0278887413442,1.21846967915e-07,0.0,0.0,0.0,1.21846967915e-07,0.0,0.0,0.0,1.21846967915e-07,-0.00980665,-0.3334261,9.83606995,9e-08,0.0,0.0,0.0,9e-08,0.0,0.0,0.0,9e-08
1783584046933178754,4457,1783584046933178754,base_link,0.0202889911499,-0.0151306314248,0.433263999373,-0.900911609248,1.0,0.0,0.0,0.0,1.0,0.0,0.0,0.0,1.0,-0.00369092239998,0.00121521763504,0.0278887413442,1.21846967915e-07,0.0,0.0,0.0,1.21846967915e-07,0.0,0.0,0.0,1.21846967915e-07,-0.00980665,-0.3334261,9.83606995,9e-08,0.0,0.0,0.0,9e-08,0.0,0.0,0.0,9e-08
1783584046933178754,4457,1783584046933178754,base_link,0.0202889911499,-0.0151306314248,0.433263999373,-0.900911609248,1.0,0.0,0.0,0.0,1.0,0.0,0.0,0.0,1.0,-0.00369092239998,0.00121521763504,0.0278887413442,1.21846967915e-07,0.0,0.0,0.0,1.21846967915e-07,0.0,0.0,0.0,1.21846967915e-07,-0.00980665,-0.3334261,9.83606995,9e-08,0.0,0.0,0.0,9e-08,0.0,0.0,0.0,9e-08
1783584046933178754,4457,1783584046933178754,base_link,0.0202889911499,-0.0151306314248,0.433263999373,-0.900911609248,1.0,0.0,0.0,0.0,1.0,0.0,0.0,0.0,1.0,-0.00369092239998,0.00121521763504,0.0278887413442,1.21846967915e-07,0.0,0.0,0.0,1.21846967915e-07,0.0,0.0,0.0,1.21846967915e-07,-0.00980665,-0.3334261,9.83606995,9e-08,0.0,0.0,0.0,9e-08,0.0,0.0,0.0,9e-08
1783584046933178754,4457,1783584046933178754,base_link,0.0202889911499,-0.0151306314248,0.433263999373,-0.900911609248,1.0,0.0,0.0,0.0,1.0,0.0,0.0,0.0,1.0,-0.00369092239998,0.00121521763504,0.0278887413442,1.21846967915e-07,0.0,0.0,0.0,1.21846967915e-07,0.0,0.0,0.0,1.21846967915e-07,-0.00980665,-0.3334261,9.83606995,9e-08,0.0,0.0,0.0,9e-08,0.0,0.0,0.0,9e-08
1783584046933178754,4457,1783584046933178754,base_link,0.0202889911499,-0.0151306314248,0.433263999373,-0.900911609248,1.0,0.0,0.0,0.0,1.0,0.0,0.0,0.0,1.0,-0.00369092239998,0.00121521763504,0.0278887413442,1.21846967915e-07,0.0,0.0,0.0,1.21846967915e-07,0.0,0.0,0.0,1.21846967915e-07,-0.00980665,-0.3334261,9.83606995,9e-08,0.0,0.0,0.0,9e-08,0.0,0.0,0.0,9e-08
1783584047174148057,4458,1783584047174148057,base_link,0.0205391674679,-0.0153727945653,0.43011639232,-0.902408836861,1.0,0.0,0.0,0.0,1.0,0.0,0.0,0.0,1.0,-0.00556295271963,0.00282749999315,0.0273381527513,1.21846967915e-07,0.0,0.0,0.0,1.21846967915e-07,0.0,0.0,0.0,1.21846967915e-07,0.0,-0.3334261,9.8458766,9e-08,0.0,0.0,0.0,9e-08,0.0,0.0,0.0,9e-08
1783584047174148057,4458,1783584047174148057,base_link,0.0205391674679,-0.0153727945653,0.43011639232,-0.902408836861,1.0,0.0,0.0,0.0,1.0,0.0,0.0,0.0,1.0,-0.00556295271963,0.00282749999315,0.0273381527513,1.21846967915e-07,0.0,0.0,0.0,1.21846967915e-07,0.0,0.0,0.0,1.21846967915e-07,0.0,-0.3334261,9.8458766,9e-08,0.0,0.0,0.0,9e-08,0.0,0.0,0.0,9e-08
1783584047174148057,4458,1783584047174148057,base_link,0.0205391674679,-0.0153727945653,0.43011639232,-0.902408836861,1.0,0.0,0.0,0.0,1.0,0.0,0.0,0.0,1.0,-0.00556295271963,0.00282749999315,0.0273381527513,1.21846967915e-07,0.0,0.0,0.0,1.21846967915e-07,0.0,0.0,0.0,1.21846967915e-07,0.0,-0.3334261,9.8458766,9e-08,0.0,0.0,0.0,9e-08,0.0,0.0,0.0,9e-08
1783584047174148057,4458,1783584047174148057,base_link,0.0205391674679,-0.0153727945653,0.43011639232,-0.902408836861,1.0,0.0,0.0,0.0,1.0,0.0,0.0,0.0,1.0,-0.00556295271963,0.00282749999315,0.0273381527513,1.21846967915e-07,0.0,0.0,0.0,1.21846967915e-07,0.0,0.0,0.0,1.21846967915e-07,0.0,-0.3334261,9.8458766,9e-08,0.0,0.0,0.0,9e-08,0.0,0.0,0.0,9e-08
1783584047174148057,4458,1783584047174148057,base_link,0.0205391674679,-0.0153727945653,0.43011639232,-0.902408836861,1.0,0.0,0.0,0.0,1.0,0.0,0.0,0.0,1.0,-0.00556295271963,0.00282749999315,0.0273381527513,1.21846967915e-07,0.0,0.0,0.0,1.21846967915e-07,0.0,0.0,0.0,1.21846967915e-07,0.0,-0.3334261,9.8458766,9e-08,0.0,0.0,0.0,9e-08,0.0,0.0,0.0,9e-08
1783584047174148057,4458,1783584047174148057,base_link,0.0205391674679,-0.0153727945653,0.43011639232,-0.902408836861,1.0,0.0,0.0,0.0,1.0,0.0,0.0,0.0,1.0,-0.00556295271963,0.00282749999315,0.0273381527513,1.21846967915e-07,0.0,0.0,0.0,1.21846967915e-07,0.0,0.0,0.0,1.21846967915e-07,0.0,-0.3334261,9.8458766,9e-08,0.0,0.0,0.0,9e-08,0.0,0.0,0.0,9e-08
1783584047174148057,4458,1783584047174148057,base_link,0.0205391674679,-0.0153727945653,0.43011639232,-0.902408836861,1.0,0.0,0.0,0.0,1.0,0.0,0.0,0.0,1.0,-0.00556295271963,0.00282749999315,0.0273381527513,1.21846967915e-07,0.0,0.0,0.0,1.21846967915e-07,0.0,0.0,0.0,1.21846967915e-07,0.0,-0.3334261,9.8458766,9e-08,0.0,0.0,0.0,9e-08,0.0,0.0,0.0,9e-08
1783584047174148057,4458,1783584047174148057,base_link,0.0205391674679,-0.0153727945653,0.43011639232,-0.902408836861,1.0,0.0,0.0,0.0,1.0,0.0,0.0,0.0,1.0,-0.00556295271963,0.00282749999315,0.0273381527513,1.21846967915e-07,0.0,0.0,0.0,1.21846967915e-07,0.0,0.0,0.0,1.21846967915e-07,0.0,-0.3334261,9.8458766,9e-08,0.0,0.0,0.0,9e-08,0.0,0.0,0.0,9e-08
1783584047174148057,4458,1783584047174148057,base_link,0.0205391674679,-0.0153727945653,0.43011639232,-0.902408836861,1.0,0.0,0.0,0.0,1.0,0.0,0.0,0.0,1.0,-0.00556295271963,0.00282749999315,0.0273381527513,1.21846967915e-07,0.0,0.0,0.0,1.21846967915e-07,0.0,0.0,0.0,1.21846967915e-07,0.0,-0.3334261,9.8458766,9e-08,0.0,0.0,0.0,9e-08,0.0,0.0,0.0,9e-08
1783584047174148057,4458,1783584047174148057,base_link,0.0205391674679,-0.0153727945653,0.43011639232,-0.902408836861,1.0,0.0,0.0,0.0,1.0,0.0,0.0,0.0,1.0,-0.00556295271963,0.00282749999315,0.0273381527513,1.21846967915e-07,0.0,0.0,0.0,1.21846967915e-07,0.0,0.0,0.0,1.21846967915e-07,0.0,-0.3334261,9.8458766,9e-08,0.0,0.0,0.0,9e-08,0.0,0.0,0.0,9e-08
1783584047174148057,4458,1783584047174148057,base_link,0.0205391674679,-0.0153727945653,0.43011639232,-0.902408836861,1.0,0.0,0.0,0.0,1.0,0.0,0.0,0.0,1.0,-0.00556295271963,0.00282749999315,0.0273381527513,1.21846967915e-07,0.0,0.0,0.0,1.21846967915e-07,0.0,0.0,0.0,1.21846967915e-07,0.0,-0.3334261,9.8458766,9e-08,0.0,0.0,0.0,9e-08,0.0,0.0,0.0,9e-08
1783584047174148057,4458,1783584047174148057,base_link,0.0205391674679,-0.0153727945653,0.43011639232,-0.902408836861,1.0,0.0,0.0,0.0,1.0,0.0,0.0,0.0,1.0,-0.00556295271963,0.00282749999315,0.0273381527513,1.21846967915e-07,0.0,0.0,0.0,1.21846967915e-07,0.0,0.0,0.0,1.21846967915e-07,0.0,-0.3334261,9.8458766,9e-08,0.0,0.0,0.0,9e-08,0.0,0.0,0.0,9e-08
1783584047174148057,4458,1783584047174148057,base_link,0.0205391674679,-0.0153727945653,0.43011639232,-0.902408836861,1.0,0.0,0.0,0.0,1.0,0.0,0.0,0.0,1.0,-0.00556295271963,0.00282749999315,0.0273381527513,1.21846967915e-07,0.0,0.0,0.0,1.21846967915e-07,0.0,0.0,0.0,1.21846967915e-07,0.0,-0.3334261,9.8458766,9e-08,0.0,0.0,0.0,9e-08,0.0,0.0,0.0,9e-08
1783584047174148057,4458,1783584047174148057,base_link,0.0205391674679,-0.0153727945653,0.43011639232,-0.902408836861,1.0,0.0,0.0,0.0,1.0,0.0,0.0,0.0,1.0,-0.00556295271963,0.00282749999315,0.0273381527513,1.21846967915e-07,0.0,0.0,0.0,1.21846967915e-07,0.0,0.0,0.0,1.21846967915e-07,0.0,-0.3334261,9.8458766,9e-08,0.0,0.0,0.0,9e-08,0.0,0.0,0.0,9e-08
1783584047174148057,4458,1783584047174148057,base_link,0.0205391674679,-0.0153727945653,0.43011639232,-0.902408836861,1.0,0.0,0.0,0.0,1.0,0.0,0.0,0.0,1.0,-0.00556295271963,0.00282749999315,0.0273381527513,1.21846967915e-07,0.0,0.0,0.0,1.21846967915e-07,0.0,0.0,0.0,1.21846967915e-07,0.0,-0.3334261,9.8458766,9e-08,0.0,0.0,0.0,9e-08,0.0,0.0,0.0,9e-08
1783584047174148057,4458,1783584047174148057,base_link,0.0205391674679,-0.0153727945653,0.43011639232,-0.902408836861,1.0,0.0,0.0,0.0,1.0,0.0,0.0,0.0,1.0,-0.00556295271963,0.00282749999315,0.0273381527513,1.21846967915e-07,0.0,0.0,0.0,1.21846967915e-07,0.0,0.0,0.0,1.21846967915e-07,0.0,-0.3334261,9.8458766,9e-08,0.0,0.0,0.0,9e-08,0.0,0.0,0.0,9e-08
1783584047174148057,4458,1783584047174148057,base_link,0.0205391674679,-0.0153727945653,0.43011639232,-0.902408836861,1.0,0.0,0.0,0.0,1.0,0.0,0.0,0.0,1.0,-0.00556295271963,0.00282749999315,0.0273381527513,1.21846967915e-07,0.0,0.0,0.0,1.21846967915e-07,0.0,0.0,0.0,1.21846967915e-07,0.0,-0.3334261,9.8458766,9e-08,0.0,0.0,0.0,9e-08,0.0,0.0,0.0,9e-08
1783584047174148057,4458,1783584047174148057,base_link,0.0205391674679,-0.0153727945653,0.43011639232,-0.902408836861,1.0,0.0,0.0,0.0,1.0,0.0,0.0,0.0,1.0,-0.00556295271963,0.00282749999315,0.0273381527513,1.21846967915e-07,0.0,0.0,0.0,1.21846967915e-07,0.0,0.0,0.0,1.21846967915e-07,0.0,-0.3334261,9.8458766,9e-08,0.0,0.0,0.0,9e-08,0.0,0.0,0.0,9e-08
1783584047174148057,4458,1783584047174148057,base_link,0.0205391674679,-0.0153727945653,0.43011639232,-0.902408836861,1.0,0.0,0.0,0.0,1.0,0.0,0.0,0.0,1.0,-0.00556295271963,0.00282749999315,0.0273381527513,1.21846967915e-07,0.0,0.0,0.0,1.21846967915e-07,0.0,0.0,0.0,1.21846967915e-07,0.0,-0.3334261,9.8458766,9e-08,0.0,0.0,0.0,9e-08,0.0,0.0,0.0,9e-08
1783584047174148057,4458,1783584047174148057,base_link,0.0205391674679,-0.0153727945653,0.43011639232,-0.902408836861,1.0,0.0,0.0,0.0,1.0,0.0,0.0,0.0,1.0,-0.00556295271963,0.00282749999315,0.0273381527513,1.21846967915e-07,0.0,0.0,0.0,1.21846967915e-07,0.0,0.0,0.0,1.21846967915e-07,0.0,-0.3334261,9.8458766,9e-08,0.0,0.0,0.0,9e-08,0.0,0.0,0.0,9e-08
1783584047174148057,4458,1783584047174148057,base_link,0.0205391674679,-0.0153727945653,0.43011639232,-0.902408836861,1.0,0.0,0.0,0.0,1.0,0.0,0.0,0.0,1.0,-0.00556295271963,0.00282749999315,0.0273381527513,1.21846967915e-07,0.0,0.0,0.0,1.21846967915e-07,0.0,0.0,0.0,1.21846967915e-07,0.0,-0.3334261,9.8458766,9e-08,0.0,0.0,0.0,9e-08,0.0,0.0,0.0,9e-08
1783584047174148057,4458,1783584047174148057,base_link,0.0205391674679,-0.0153727945653,0.43011639232,-0.902408836861,1.0,0.0,0.0,0.0,1.0,0.0,0.0,0.0,1.0,-0.00556295271963,0.00282749999315,0.0273381527513,1.21846967915e-07,0.0,0.0,0.0,1.21846967915e-07,0.0,0.0,0.0,1.21846967915e-07,0.0,-0.3334261,9.8458766,9e-08,0.0,0.0,0.0,9e-08,0.0,0.0,0.0,9e-08
1783584047174148057,4458,1783584047174148057,base_link,0.0205391674679,-0.0153727945653,0.43011639232,-0.902408836861,1.0,0.0,0.0,0.0,1.0,0.0,0.0,0.0,1.0,-0.00556295271963,0.00282749999315,0.0273381527513,1.21846967915e-07,0.0,0.0,0.0,1.21846967915e-07,0.0,0.0,0.0,1.21846967915e-07,0.0,-0.3334261,9.8458766,9e-08,0.0,0.0,0.0,9e-08,0.0,0.0,0.0,9e-08
1783584047174148057,4458,1783584047174148057,base_link,0.0205391674679,-0.0153727945653,0.43011639232,-0.902408836861,1.0,0.0,0.0,0.0,1.0,0.0,0.0,0.0,1.0,-0.00556295271963,0.00282749999315,0.0273381527513,1.21846967915e-07,0.0,0.0,0.0,1.21846967915e-07,0.0,0.0,0.0,1.21846967915e-07,0.0,-0.3334261,9.8458766,9e-08,0.0,0.0,0.0,9e-08,0.0,0.0,0.0,9e-08
1783584047174148057,4458,1783584047174148057,base_link,0.0205391674679,-0.0153727945653,0.43011639232,-0.902408836861,1.0,0.0,0.0,0.0,1.0,0.0,0.0,0.0,1.0,-0.00556295271963,0.00282749999315,0.0273381527513,1.21846967915e-07,0.0,0.0,0.0,1.21846967915e-07,0.0,0.0,0.0,1.21846967915e-07,0.0,-0.3334261,9.8458766,9e-08,0.0,0.0,0.0,9e-08,0.0,0.0,0.0,9e-08
1783584047174148057,4458,1783584047174148057,base_link,0.0205391674679,-0.0153727945653,0.43011639232,-0.902408836861,1.0,0.0,0.0,0.0,1.0,0.0,0.0,0.0,1.0,-0.00556295271963,0.00282749999315,0.0273381527513,1.21846967915e-07,0.0,0.0,0.0,1.21846967915e-07,0.0,0.0,0.0,1.21846967915e-07,0.0,-0.3334261,9.8458766,9e-08,0.0,0.0,0.0,9e-08,0.0,0.0,0.0,9e-08
1783584047433148057,4459,1783584047433148057,base_link,0.0202760314609,-0.0151592017535,0.426905896017,-0.903941611553,1.0,0.0,0.0,0.0,1.0,0.0,0.0,0.0,1.0,0.000209431222174,0.00067238137126,0.0251543652266,1.21846967915e-07,0.0,0.0,0.0,1.21846967915e-07,0.0,0.0,0.0,1.21846967915e-07,0.0,-0.3334261,9.8458766,9e-08,0.0,0.0,0.0,9e-08,0.0,0.0,0.0,9e-08
1783584047433148057,4459,1783584047433148057,base_link,0.0202760314609,-0.0151592017535,0.426905896017,-0.903941611553,1.0,0.0,0.0,0.0,1.0,0.0,0.0,0.0,1.0,0.000209431222174,0.00067238137126,0.0251543652266,1.21846967915e-07,0.0,0.0,0.0,1.21846967915e-07,0.0,0.0,0.0,1.21846967915e-07,0.0,-0.3334261,9.8458766,9e-08,0.0,0.0,0.0,9e-08,0.0,0.0,0.0,9e-08
1783584047433148057,4459,1783584047433148057,base_link,0.0202760314609,-0.0151592017535,0.426905896017,-0.903941611553,1.0,0.0,0.0,0.0,1.0,0.0,0.0,0.0,1.0,0.000209431222174,0.00067238137126,0.0251543652266,1.21846967915e-07,0.0,0.0,0.0,1.21846967915e-07,0.0,0.0,0.0,1.21846967915e-07,0.0,-0.3334261,9.8458766,9e-08,0.0,0.0,0.0,9e-08,0.0,0.0,0.0,9e-08
1783584047433148057,4459,1783584047433148057,base_link,0.0202760314609,-0.0151592017535,0.426905896017,-0.903941611553,1.0,0.0,0.0,0.0,1.0,0.0,0.0,0.0,1.0,0.000209431222174,0.00067238137126,0.0251543652266,1.21846967915e-07,0.0,0.0,0.0,1.21846967915e-07,0.0,0.0,0.0,1.21846967915e-07,0.0,-0.3334261,9.8458766,9e-08,0.0,0.0,0.0,9e-08,0.0,0.0,0.0,9e-08
1783584047433148057,4459,1783584047433148057,base_link,0.0202760314609,-0.0151592017535,0.426905896017,-0.903941611553,1.0,0.0,0.0,0.0,1.0,0.0,0.0,0.0,1.0,0.000209431222174,0.00067238137126,0.0251543652266,1.21846967915e-07,0.0,0.0,0.0,1.21846967915e-07,0.0,0.0,0.0,1.21846967915e-07,0.0,-0.3334261,9.8458766,9e-08,0.0,0.0,0.0,9e-08,0.0,0.0,0.0,9e-08
1783584047433148057,4459,1783584047433148057,base_link,0.0202760314609,-0.0151592017535,0.426905896017,-0.903941611553,1.0,0.0,0.0,0.0,1.0,0.0,0.0,0.0,1.0,0.000209431222174,0.00067238137126,0.0251543652266,1.21846967915e-07,0.0,0.0,0.0,1.21846967915e-07,0.0,0.0,0.0,1.21846967915e-07,0.0,-0.3334261,9.8458766,9e-08,0.0,0.0,0.0,9e-08,0.0,0.0,0.0,9e-08
1783584047433148057,4459,1783584047433148057,base_link,0.0202760314609,-0.0151592017535,0.426905896017,-0.903941611553,1.0,0.0,0.0,0.0,1.0,0.0,0.0,0.0,1.0,0.000209431222174,0.00067238137126,0.0251543652266,1.21846967915e-07,0.0,0.0,0.0,1.21846967915e-07,0.0,0.0,0.0,1.21846967915e-07,0.0,-0.3334261,9.8458766,9e-08,0.0,0.0,0.0,9e-08,0.0,0.0,0.0,9e-08
1783584047433148057,4459,1783584047433148057,base_link,0.0202760314609,-0.0151592017535,0.426905896017,-0.903941611553,1.0,0.0,0.0,0.0,1.0,0.0,0.0,0.0,1.0,0.000209431222174,0.00067238137126,0.0251543652266,1.21846967915e-07,0.0,0.0,0.0,1.21846967915e-07,0.0,0.0,0.0,1.21846967915e-07,0.0,-0.3334261,9.8458766,9e-08,0.0,0.0,0.0,9e-08,0.0,0.0,0.0,9e-08
1783584047433148057,4459,1783584047433148057,base_link,0.0202760314609,-0.0151592017535,0.426905896017,-0.903941611553,1.0,0.0,0.0,0.0,1.0,0.0,0.0,0.0,1.0,0.000209431222174,0.00067238137126,0.0251543652266,1.21846967915e-07,0.0,0.0,0.0,1.21846967915e-07,0.0,0.0,0.0,1.21846967915e-07,0.0,-0.3334261,9.8458766,9e-08,0.0,0.0,0.0,9e-08,0.0,0.0,0.0,9e-08
1783584047433148057,4459,1783584047433148057,base_link,0.0202760314609,-0.0151592017535,0.426905896017,-0.903941611553,1.0,0.0,0.0,0.0,1.0,0.0,0.0,0.0,1.0,0.000209431222174,0.00067238137126,0.0251543652266,1.21846967915e-07,0.0,0.0,0.0,1.21846967915e-07,0.0,0.0,0.0,1.21846967915e-07,0.0,-0.3334261,9.8458766,9e-08,0.0,0.0,0.0,9e-08,0.0,0.0,0.0,9e-08
1783584047433148057,4459,1783584047433148057,base_link,0.0202760314609,-0.0151592017535,0.426905896017,-0.903941611553,1.0,0.0,0.0,0.0,1.0,0.0,0.0,0.0,1.0,0.000209431222174,0.00067238137126,0.0251543652266,1.21846967915e-07,0.0,0.0,0.0,1.21846967915e-07,0.0,0.0,0.0,1.21846967915e-07,0.0,-0.3334261,9.8458766,9e-08,0.0,0.0,0.0,9e-08,0.0,0.0,0.0,9e-08
1783584047433148057,4459,1783584047433148057,base_link,0.0202760314609,-0.0151592017535,0.426905896017,-0.903941611553,1.0,0.0,0.0,0.0,1.0,0.0,0.0,0.0,1.0,0.000209431222174,0.00067238137126,0.0251543652266,1.21846967915e-07,0.0,0.0,0.0,1.21846967915e-07,0.0,0.0,0.0,1.21846967915e-07,0.0,-0.3334261,9.8458766,9e-08,0.0,0.0,0.0,9e-08,0.0,0.0,0.0,9e-08
1783584047433148057,4459,1783584047433148057,base_link,0.0202760314609,-0.0151592017535,0.426905896017,-0.903941611553,1.0,0.0,0.0,0.0,1.0,0.0,0.0,0.0,1.0,0.000209431222174,0.00067238137126,0.0251543652266,1.21846967915e-07,0.0,0.0,0.0,1.21846967915e-07,0.0,0.0,0.0,1.21846967915e-07,0.0,-0.3334261,9.8458766,9e-08,0.0,0.0,0.0,9e-08,0.0,0.0,0.0,9e-08
1783584047433148057,4459,1783584047433148057,base_link,0.0202760314609,-0.0151592017535,0.426905896017,-0.903941611553,1.0,0.0,0.0,0.0,1.0,0.0,0.0,0.0,1.0,0.000209431222174,0.00067238137126,0.0251543652266,1.21846967915e-07,0.0,0.0,0.0,1.21846967915e-07,0.0,0.0,0.0,1.21846967915e-07,0.0,-0.3334261,9.8458766,9e-08,0.0,0.0,0.0,9e-08,0.0,0.0,0.0,9e-08
1783584047433148057,4459,1783584047433148057,base_link,0.0202760314609,-0.0151592017535,0.426905896017,-0.903941611553,1.0,0.0,0.0,0.0,1.0,0.0,0.0,0.0,1.0,0.000209431222174,0.00067238137126,0.0251543652266,1.21846967915e-07,0.0,0.0,0.0,1.21846967915e-07,0.0,0.0,0.0,1.21846967915e-07,0.0,-0.3334261,9.8458766,9e-08,0.0,0.0,0.0,9e-08,0.0,0.0,0.0,9e-08
1783584047433148057,4459,1783584047433148057,base_link,0.0202760314609,-0.0151592017535,0.426905896017,-0.903941611553,1.0,0.0,0.0,0.0,1.0,0.0,0.0,0.0,1.0,0.000209431222174,0.00067238137126,0.0251543652266,1.21846967915e-07,0.0,0.0,0.0,1.21846967915e-07,0.0,0.0,0.0,1.21846967915e-07,0.0,-0.3334261,9.8458766,9e-08,0.0,0.0,0.0,9e-08,0.0,0.0,0.0,9e-08
1783584047433148057,4459,1783584047433148057,base_link,0.0202760314609,-0.0151592017535,0.426905896017,-0.903941611553,1.0,0.0,0.0,0.0,1.0,0.0,0.0,0.0,1.0,0.000209431222174,0.00067238137126,0.0251543652266,1.21846967915e-07,0.0,0.0,0.0,1.21846967915e-07,0.0,0.0,0.0,1.21846967915e-07,0.0,-0.3334261,9.8458766,9e-08,0.0,0.0,0.0,9e-08,0.0,0.0,0.0,9e-08
1783584047433148057,4459,1783584047433148057,base_link,0.0202760314609,-0.0151592017535,0.426905896017,-0.903941611553,1.0,0.0,0.0,0.0,1.0,0.0,0.0,0.0,1.0,0.000209431222174,0.00067238137126,0.0251543652266,1.21846967915e-07,0.0,0.0,0.0,1.21846967915e-07,0.0,0.0,0.0,1.21846967915e-07,0.0,-0.3334261,9.8458766,9e-08,0.0,0.0,0.0,9e-08,0.0,0.0,0.0,9e-08
1783584047433148057,4459,1783584047433148057,base_link,0.0202760314609,-0.0151592017535,0.426905896017,-0.903941611553,1.0,0.0,0.0,0.0,1.0,0.0,0.0,0.0,1.0,0.000209431222174,0.00067238137126,0.0251543652266,1.21846967915e-07,0.0,0.0,0.0,1.21846967915e-07,0.0,0.0,0.0,1.21846967915e-07,0.0,-0.3334261,9.8458766,9e-08,0.0,0.0,0.0,9e-08,0.0,0.0,0.0,9e-08
1783584047433148057,4459,1783584047433148057,base_link,0.0202760314609,-0.0151592017535,0.426905896017,-0.903941611553,1.0,0.0,0.0,0.0,1.0,0.0,0.0,0.0,1.0,0.000209431222174,0.00067238137126,0.0251543652266,1.21846967915e-07,0.0,0.0,0.0,1.21846967915e-07,0.0,0.0,0.0,1.21846967915e-07,0.0,-0.3334261,9.8458766,9e-08,0.0,0.0,0.0,9e-08,0.0,0.0,0.0,9e-08
1783584047433148057,4459,1783584047433148057,base_link,0.0202760314609,-0.0151592017535,0.426905896017,-0.903941611553,1.0,0.0,0.0,0.0,1.0,0.0,0.0,0.0,1.0,0.000209431222174,0.00067238137126,0.0251543652266,1.21846967915e-07,0.0,0.0,0.0,1.21846967915e-07,0.0,0.0,0.0,1.21846967915e-07,0.0,-0.3334261,9.8458766,9e-08,0.0,0.0,0.0,9e-08,0.0,0.0,0.0,9e-08
1783584047433148057,4459,1783584047433148057,base_link,0.0202760314609,-0.0151592017535,0.426905896017,-0.903941611553,1.0,0.0,0.0,0.0,1.0,0.0,0.0,0.0,1.0,0.000209431222174,0.00067238137126,0.0251543652266,1.21846967915e-07,0.0,0.0,0.0,1.21846967915e-07,0.0,0.0,0.0,1.21846967915e-07,0.0,-0.3334261,9.8458766,9e-08,0.0,0.0,0.0,9e-08,0.0,0.0,0.0,9e-08
1783584047433148057,4459,1783584047433148057,base_link,0.0202760314609,-0.0151592017535,0.426905896017,-0.903941611553,1.0,0.0,0.0,0.0,1.0,0.0,0.0,0.0,1.0,0.000209431222174,0.00067238137126,0.0251543652266,1.21846967915e-07,0.0,0.0,0.0,1.21846967915e-07,0.0,0.0,0.0,1.21846967915e-07,0.0,-0.3334261,9.8458766,9e-08,0.0,0.0,0.0,9e-08,0.0,0.0,0.0,9e-08
1783584047433148057,4459,1783584047433148057,base_link,0.0202760314609,-0.0151592017535,0.426905896017,-0.903941611553,1.0,0.0,0.0,0.0,1.0,0.0,0.0,0.0,1.0,0.000209431222174,0.00067238137126,0.0251543652266,1.21846967915e-07,0.0,0.0,0.0,1.21846967915e-07,0.0,0.0,0.0,1.21846967915e-07,0.0,-0.3334261,9.8458766,9e-08,0.0,0.0,0.0,9e-08,0.0,0.0,0.0,9e-08
1783584047674224890,4460,1783584047674224890,base_link,0.0202065161342,-0.0149515936714,0.424056433894,-0.905286853669,1.0,0.0,0.0,0.0,1.0,0.0,0.0,0.0,1.0,-0.00342582212761,0.000850883312523,0.0253104455769,1.21846967915e-07,0.0,0.0,0.0,1.21846967915e-07,0.0,0.0,0.0,1.21846967915e-07,-0.00980665,-0.3334261,9.8458766,9e-08,0.0,0.0,0.0,9e-08,0.0,0.0,0.0,9e-08
1783584047674224890,4460,1783584047674224890,base_link,0.0202065161342,-0.0149515936714,0.424056433894,-0.905286853669,1.0,0.0,0.0,0.0,1.0,0.0,0.0,0.0,1.0,-0.00342582212761,0.000850883312523,0.0253104455769,1.21846967915e-07,0.0,0.0,0.0,1.21846967915e-07,0.0,0.0,0.0,1.21846967915e-07,-0.00980665,-0.3334261,9.8458766,9e-08,0.0,0.0,0.0,9e-08,0.0,0.0,0.0,9e-08
1783584047674224890,4460,1783584047674224890,base_link,0.0202065161342,-0.0149515936714,0.424056433894,-0.905286853669,1.0,0.0,0.0,0.0,1.0,0.0,0.0,0.0,1.0,-0.00342582212761,0.000850883312523,0.0253104455769,1.21846967915e-07,0.0,0.0,0.0,1.21846967915e-07,0.0,0.0,0.0,1.21846967915e-07,-0.00980665,-0.3334261,9.8458766,9e-08,0.0,0.0,0.0,9e-08,0.0,0.0,0.0,9e-08
1783584047674224890,4460,1783584047674224890,base_link,0.0202065161342,-0.0149515936714,0.424056433894,-0.905286853669,1.0,0.0,0.0,0.0,1.0,0.0,0.0,0.0,1.0,-0.00342582212761,0.000850883312523,0.0253104455769,1.21846967915e-07,0.0,0.0,0.0,1.21846967915e-07,0.0,0.0,0.0,1.21846967915e-07,-0.00980665,-0.3334261,9.8458766,9e-08,0.0,0.0,0.0,9e-08,0.0,0.0,0.0,9e-08
1783584047674224890,4460,1783584047674224890,base_link,0.0202065161342,-0.0149515936714,0.424056433894,-0.905286853669,1.0,0.0,0.0,0.0,1.0,0.0,0.0,0.0,1.0,-0.00342582212761,0.000850883312523,0.0253104455769,1.21846967915e-07,0.0,0.0,0.0,1.21846967915e-07,0.0,0.0,0.0,1.21846967915e-07,-0.00980665,-0.3334261,9.8458766,9e-08,0.0,0.0,0.0,9e-08,0.0,0.0,0.0,9e-08
1783584047674224890,4460,1783584047674224890,base_link,0.0202065161342,-0.0149515936714,0.424056433894,-0.905286853669,1.0,0.0,0.0,0.0,1.0,0.0,0.0,0.0,1.0,-0.00342582212761,0.000850883312523,0.0253104455769,1.21846967915e-07,0.0,0.0,0.0,1.21846967915e-07,0.0,0.0,0.0,1.21846967915e-07,-0.00980665,-0.3334261,9.8458766,9e-08,0.0,0.0,0.0,9e-08,0.0,0.0,0.0,9e-08
1783584047674224890,4460,1783584047674224890,base_link,0.0202065161342,-0.0149515936714,0.424056433894,-0.905286853669,1.0,0.0,0.0,0.0,1.0,0.0,0.0,0.0,1.0,-0.00342582212761,0.000850883312523,0.0253104455769,1.21846967915e-07,0.0,0.0,0.0,1.21846967915e-07,0.0,0.0,0.0,1.21846967915e-07,-0.00980665,-0.3334261,9.8458766,9e-08,0.0,0.0,0.0,9e-08,0.0,0.0,0.0,9e-08
1783584047674224890,4460,1783584047674224890,base_link,0.0202065161342,-0.0149515936714,0.424056433894,-0.905286853669,1.0,0.0,0.0,0.0,1.0,0.0,0.0,0.0,1.0,-0.00342582212761,0.000850883312523,0.0253104455769,1.21846967915e-07,0.0,0.0,0.0,1.21846967915e-07,0.0,0.0,0.0,1.21846967915e-07,-0.00980665,-0.3334261,9.8458766,9e-08,0.0,0.0,0.0,9e-08,0.0,0.0,0.0,9e-08
1783584047674224890,4460,1783584047674224890,base_link,0.0202065161342,-0.0149515936714,0.424056433894,-0.905286853669,1.0,0.0,0.0,0.0,1.0,0.0,0.0,0.0,1.0,-0.00342582212761,0.000850883312523,0.0253104455769,1.21846967915e-07,0.0,0.0,0.0,1.21846967915e-07,0.0,0.0,0.0,1.21846967915e-07,-0.00980665,-0.3334261,9.8458766,9e-08,0.0,0.0,0.0,9e-08,0.0,0.0,0.0,9e-08
1783584047674224890,4460,1783584047674224890,base_link,0.0202065161342,-0.0149515936714,0.424056433894,-0.905286853669,1.0,0.0,0.0,0.0,1.0,0.0,0.0,0.0,1.0,-0.00342582212761,0.000850883312523,0.0253104455769,1.21846967915e-07,0.0,0.0,0.0,1.21846967915e-07,0.0,0.0,0.0,1.21846967915e-07,-0.00980665,-0.3334261,9.8458766,9e-08,0.0,0.0,0.0,9e-08,0.0,0.0,0.0,9e-08
1783584047674224890,4460,1783584047674224890,base_link,0.0202065161342,-0.0149515936714,0.424056433894,-0.905286853669,1.0,0.0,0.0,0.0,1.0,0.0,0.0,0.0,1.0,-0.00342582212761,0.000850883312523,0.0253104455769,1.21846967915e-07,0.0,0.0,0.0,1.21846967915e-07,0.0,0.0,0.0,1.21846967915e-07,-0.00980665,-0.3334261,9.8458766,9e-08,0.0,0.0,0.0,9e-08,0.0,0.0,0.0,9e-08
1783584047674224890,4460,1783584047674224890,base_link,0.0202065161342,-0.0149515936714,0.424056433894,-0.905286853669,1.0,0.0,0.0,0.0,1.0,0.0,0.0,0.0,1.0,-0.00342582212761,0.000850883312523,0.0253104455769,1.21846967915e-07,0.0,0.0,0.0,1.21846967915e-07,0.0,0.0,0.0,1.21846967915e-07,-0.00980665,-0.3334261,9.8458766,9e-08,0.0,0.0,0.0,9e-08,0.0,0.0,0.0,9e-08
1783584047674224890,4460,1783584047674224890,base_link,0.0202065161342,-0.0149515936714,0.424056433894,-0.905286853669,1.0,0.0,0.0,0.0,1.0,0.0,0.0,0.0,1.0,-0.00342582212761,0.000850883312523,0.0253104455769,1.21846967915e-07,0.0,0.0,0.0,1.21846967915e-07,0.0,0.0,0.0,1.21846967915e-07,-0.00980665,-0.3334261,9.8458766,9e-08,0.0,0.0,0.0,9e-08,0.0,0.0,0.0,9e-08
1783584047674224890,4460,1783584047674224890,base_link,0.0202065161342,-0.0149515936714,0.424056433894,-0.905286853669,1.0,0.0,0.0,0.0,1.0,0.0,0.0,0.0,1.0,-0.00342582212761,0.000850883312523,0.0253104455769,1.21846967915e-07,0.0,0.0,0.0,1.21846967915e-07,0.0,0.0,0.0,1.21846967915e-07,-0.00980665,-0.3334261,9.8458766,9e-08,0.0,0.0,0.0,9e-08,0.0,0.0,0.0,9e-08
1783584047674224890,4460,1783584047674224890,base_link,0.0202065161342,-0.0149515936714,0.424056433894,-0.905286853669,1.0,0.0,0.0,0.0,1.0,0.0,0.0,0.0,1.0,-0.00342582212761,0.000850883312523,0.0253104455769,1.21846967915e-07,0.0,0.0,0.0,1.21846967915e-07,0.0,0.0,0.0,1.21846967915e-07,-0.00980665,-0.3334261,9.8458766,9e-08,0.0,0.0,0.0,9e-08,0.0,0.0,0.0,9e-08
1783584047674224890,4460,1783584047674224890,base_link,0.0202065161342,-0.0149515936714,0.424056433894,-0.905286853669,1.0,0.0,0.0,0.0,1.0,0.0,0.0,0.0,1.0,-0.00342582212761,0.000850883312523,0.0253104455769,1.21846967915e-07,0.0,0.0,0.0,1.21846967915e-07,0.0,0.0,0.0,1.21846967915e-07,-0.00980665,-0.3334261,9.8458766,9e-08,0.0,0.0,0.0,9e-08,0.0,0.0,0.0,9e-08
1783584047674224890,4460,1783584047674224890,base_link,0.0202065161342,-0.0149515936714,0.424056433894,-0.905286853669,1.0,0.0,0.0,0.0,1.0,0.0,0.0,0.0,1.0,-0.00342582212761,0.000850883312523,0.0253104455769,1.21846967915e-07,0.0,0.0,0.0,1.21846967915e-07,0.0,0.0,0.0,1.21846967915e-07,-0.00980665,-0.3334261,9.8458766,9e-08,0.0,0.0,0.0,9e-08,0.0,0.0,0.0,9e-08
1783584047674224890,4460,1783584047674224890,base_link,0.0202065161342,-0.0149515936714,0.424056433894,-0.905286853669,1.0,0.0,0.0,0.0,1.0,0.0,0.0,0.0,1.0,-0.00342582212761,0.000850883312523,0.0253104455769,1.21846967915e-07,0.0,0.0,0.0,1.21846967915e-07,0.0,0.0,0.0,1.21846967915e-07,-0.00980665,-0.3334261,9.8458766,9e-08,0.0,0.0,0.0,9e-08,0.0,0.0,0.0,9e-08
1783584047674224890,4460,1783584047674224890,base_link,0.0202065161342,-0.0149515936714,0.424056433894,-0.905286853669,1.0,0.0,0.0,0.0,1.0,0.0,0.0,0.0,1.0,-0.00342582212761,0.000850883312523,0.0253104455769,1.21846967915e-07,0.0,0.0,0.0,1.21846967915e-07,0.0,0.0,0.0,1.21846967915e-07,-0.00980665,-0.3334261,9.8458766,9e-08,0.0,0.0,0.0,9e-08,0.0,0.0,0.0,9e-08
1783584047674224890,4460,1783584047674224890,base_link,0.0202065161342,-0.0149515936714,0.424056433894,-0.905286853669,1.0,0.0,0.0,0.0,1.0,0.0,0.0,0.0,1.0,-0.00342582212761,0.000850883312523,0.0253104455769,1.21846967915e-07,0.0,0.0,0.0,1.21846967915e-07,0.0,0.0,0.0,1.21846967915e-07,-0.00980665,-0.3334261,9.8458766,9e-08,0.0,0.0,0.0,9e-08,0.0,0.0,0.0,9e-08
1783584047674224890,4460,1783584047674224890,base_link,0.0202065161342,-0.0149515936714,0.424056433894,-0.905286853669,1.0,0.0,0.0,0.0,1.0,0.0,0.0,0.0,1.0,-0.00342582212761,0.000850883312523,0.0253104455769,1.21846967915e-07,0.0,0.0,0.0,1.21846967915e-07,0.0,0.0,0.0,1.21846967915e-07,-0.00980665,-0.3334261,9.8458766,9e-08,0.0,0.0,0.0,9e-08,0.0,0.0,0.0,9e-08
1783584047674224890,4460,1783584047674224890,base_link,0.0202065161342,-0.0149515936714,0.424056433894,-0.905286853669,1.0,0.0,0.0,0.0,1.0,0.0,0.0,0.0,1.0,-0.00342582212761,0.000850883312523,0.0253104455769,1.21846967915e-07,0.0,0.0,0.0,1.21846967915e-07,0.0,0.0,0.0,1.21846967915e-07,-0.00980665,-0.3334261,9.8458766,9e-08,0.0,0.0,0.0,9e-08,0.0,0.0,0.0,9e-08
1783584047674224890,4460,1783584047674224890,base_link,0.0202065161342,-0.0149515936714,0.424056433894,-0.905286853669,1.0,0.0,0.0,0.0,1.0,0.0,0.0,0.0,1.0,-0.00342582212761,0.000850883312523,0.0253104455769,1.21846967915e-07,0.0,0.0,0.0,1.21846967915e-07,0.0,0.0,0.0,1.21846967915e-07,-0.00980665,-0.3334261,9.8458766,9e-08,0.0,0.0,0.0,9e-08,0.0,0.0,0.0,9e-08
1783584047674224890,4460,1783584047674224890,base_link,0.0202065161342,-0.0149515936714,0.424056433894,-0.905286853669,1.0,0.0,0.0,0.0,1.0,0.0,0.0,0.0,1.0,-0.00342582212761,0.000850883312523,0.0253104455769,1.21846967915e-07,0.0,0.0,0.0,1.21846967915e-07,0.0,0.0,0.0,1.21846967915e-07,-0.00980665,-0.3334261,9.8458766,9e-08,0.0,0.0,0.0,9e-08,0.0,0.0,0.0,9e-08
1783584047674224890,4460,1783584047674224890,base_link,0.0202065161342,-0.0149515936714,0.424056433894,-0.905286853669,1.0,0.0,0.0,0.0,1.0,0.0,0.0,0.0,1.0,-0.00342582212761,0.000850883312523,0.0253104455769,1.21846967915e-07,0.0,0.0,0.0,1.21846967915e-07,0.0,0.0,0.0,1.21846967915e-07,-0.00980665,-0.3334261,9.8458766,9e-08,0.0,0.0,0.0,9e-08,0.0,0.0,0.0,9e-08
1783584047674224890,4460,1783584047674224890,base_link,0.0202065161342,-0.0149515936714,0.424056433894,-0.905286853669,1.0,0.0,0.0,0.0,1.0,0.0,0.0,0.0,1.0,-0.00342582212761,0.000850883312523,0.0253104455769,1.21846967915e-07,0.0,0.0,0.0,1.21846967915e-07,0.0,0.0,0.0,1.21846967915e-07,-0.00980665,-0.3334261,9.8458766,9e-08,0.0,0.0,0.0,9e-08,0.0,0.0,0.0,9e-08
1783584047933224890,4461,1783584047933224890,base_link,0.0204003767029,-0.014644426515,0.42108661242,-0.906672724991,1.0,0.0,0.0,0.0,1.0,0.0,0.0,0.0,1.0,-0.00443885056302,-0.0016006808728,0.0237417127937,1.21846967915e-07,0.0,0.0,0.0,1.21846967915e-07,0.0,0.0,0.0,1.21846967915e-07,-0.00980665,-0.3334261,9.8458766,9e-08,0.0,0.0,0.0,9e-08,0.0,0.0,0.0,9e-08
1783584047933224890,4461,1783584047933224890,base_link,0.0204003767029,-0.014644426515,0.42108661242,-0.906672724991,1.0,0.0,0.0,0.0,1.0,0.0,0.0,0.0,1.0,-0.00443885056302,-0.0016006808728,0.0237417127937,1.21846967915e-07,0.0,0.0,0.0,1.21846967915e-07,0.0,0.0,0.0,1.21846967915e-07,-0.00980665,-0.3334261,9.8458766,9e-08,0.0,0.0,0.0,9e-08,0.0,0.0,0.0,9e-08
1783584047933224890,4461,1783584047933224890,base_link,0.0204003767029,-0.014644426515,0.42108661242,-0.906672724991,1.0,0.0,0.0,0.0,1.0,0.0,0.0,0.0,1.0,-0.00443885056302,-0.0016006808728,0.0237417127937,1.21846967915e-07,0.0,0.0,0.0,1.21846967915e-07,0.0,0.0,0.0,1.21846967915e-07,-0.00980665,-0.3334261,9.8458766,9e-08,0.0,0.0,0.0,9e-08,0.0,0.0,0.0,9e-08
1783584047933224890,4461,1783584047933224890,base_link,0.0204003767029,-0.014644426515,0.42108661242,-0.906672724991,1.0,0.0,0.0,0.0,1.0,0.0,0.0,0.0,1.0,-0.00443885056302,-0.0016006808728,0.0237417127937,1.21846967915e-07,0.0,0.0,0.0,1.21846967915e-07,0.0,0.0,0.0,1.21846967915e-07,-0.00980665,-0.3334261,9.8458766,9e-08,0.0,0.0,0.0,9e-08,0.0,0.0,0.0,9e-08
1783584047933224890,4461,1783584047933224890,base_link,0.0204003767029,-0.014644426515,0.42108661242,-0.906672724991,1.0,0.0,0.0,0.0,1.0,0.0,0.0,0.0,1.0,-0.00443885056302,-0.0016006808728,0.0237417127937,1.21846967915e-07,0.0,0.0,0.0,1.21846967915e-07,0.0,0.0,0.0,1.21846967915e-07,-0.00980665,-0.3334261,9.8458766,9e-08,0.0,0.0,0.0,9e-08,0.0,0.0,0.0,9e-08
1783584047933224890,4461,1783584047933224890,base_link,0.0204003767029,-0.014644426515,0.42108661242,-0.906672724991,1.0,0.0,0.0,0.0,1.0,0.0,0.0,0.0,1.0,-0.00443885056302,-0.0016006808728,0.0237417127937,1.21846967915e-07,0.0,0.0,0.0,1.21846967915e-07,0.0,0.0,0.0,1.21846967915e-07,-0.00980665,-0.3334261,9.8458766,9e-08,0.0,0.0,0.0,9e-08,0.0,0.0,0.0,9e-08
1783584047933224890,4461,1783584047933224890,base_link,0.0204003767029,-0.014644426515,0.42108661242,-0.906672724991,1.0,0.0,0.0,0.0,1.0,0.0,0.0,0.0,1.0,-0.00443885056302,-0.0016006808728,0.0237417127937,1.21846967915e-07,0.0,0.0,0.0,1.21846967915e-07,0.0,0.0,0.0,1.21846967915e-07,-0.00980665,-0.3334261,9.8458766,9e-08,0.0,0.0,0.0,9e-08,0.0,0.0,0.0,9e-08
1783584047933224890,4461,1783584047933224890,base_link,0.0204003767029,-0.014644426515,0.42108661242,-0.906672724991,1.0,0.0,0.0,0.0,1.0,0.0,0.0,0.0,1.0,-0.00443885056302,-0.0016006808728,0.0237417127937,1.21846967915e-07,0.0,0.0,0.0,1.21846967915e-07,0.0,0.0,0.0,1.21846967915e-07,-0.00980665,-0.3334261,9.8458766,9e-08,0.0,0.0,0.0,9e-08,0.0,0.0,0.0,9e-08
1783584047933224890,4461,1783584047933224890,base_link,0.0204003767029,-0.014644426515,0.42108661242,-0.906672724991,1.0,0.0,0.0,0.0,1.0,0.0,0.0,0.0,1.0,-0.00443885056302,-0.0016006808728,0.0237417127937,1.21846967915e-07,0.0,0.0,0.0,1.21846967915e-07,0.0,0.0,0.0,1.21846967915e-07,-0.00980665,-0.3334261,9.8458766,9e-08,0.0,0.0,0.0,9e-08,0.0,0.0,0.0,9e-08
1783584047933224890,4461,1783584047933224890,base_link,0.0204003767029,-0.014644426515,0.42108661242,-0.906672724991,1.0,0.0,0.0,0.0,1.0,0.0,0.0,0.0,1.0,-0.00443885056302,-0.0016006808728,0.0237417127937,1.21846967915e-07,0.0,0.0,0.0,1.21846967915e-07,0.0,0.0,0.0,1.21846967915e-07,-0.00980665,-0.3334261,9.8458766,9e-08,0.0,0.0,0.0,9e-08,0.0,0.0,0.0,9e-08
1783584047933224890,4461,1783584047933224890,base_link,0.0204003767029,-0.014644426515,0.42108661242,-0.906672724991,1.0,0.0,0.0,0.0,1.0,0.0,0.0,0.0,1.0,-0.00443885056302,-0.0016006808728,0.0237417127937,1.21846967915e-07,0.0,0.0,0.0,1.21846967915e-07,0.0,0.0,0.0,1.21846967915e-07,-0.00980665,-0.3334261,9.8458766,9e-08,0.0,0.0,0.0,9e-08,0.0,0.0,0.0,9e-08
1783584047933224890,4461,1783584047933224890,base_link,0.0204003767029,-0.014644426515,0.42108661242,-0.906672724991,1.0,0.0,0.0,0.0,1.0,0.0,0.0,0.0,1.0,-0.00443885056302,-0.0016006808728,0.0237417127937,1.21846967915e-07,0.0,0.0,0.0,1.21846967915e-07,0.0,0.0,0.0,1.21846967915e-07,-0.00980665,-0.3334261,9.8458766,9e-08,0.0,0.0,0.0,9e-08,0.0,0.0,0.0,9e-08
1783584047933224890,4461,1783584047933224890,base_link,0.0204003767029,-0.014644426515,0.42108661242,-0.906672724991,1.0,0.0,0.0,0.0,1.0,0.0,0.0,0.0,1.0,-0.00443885056302,-0.0016006808728,0.0237417127937,1.21846967915e-07,0.0,0.0,0.0,1.21846967915e-07,0.0,0.0,0.0,1.21846967915e-07,-0.00980665,-0.3334261,9.8458766,9e-08,0.0,0.0,0.0,9e-08,0.0,0.0,0.0,9e-08
1783584047933224890,4461,1783584047933224890,base_link,0.0204003767029,-0.014644426515,0.42108661242,-0.906672724991,1.0,0.0,0.0,0.0,1.0,0.0,0.0,0.0,1.0,-0.00443885056302,-0.0016006808728,0.0237417127937,1.21846967915e-07,0.0,0.0,0.0,1.21846967915e-07,0.0,0.0,0.0,1.21846967915e-07,-0.00980665,-0.3334261,9.8458766,9e-08,0.0,0.0,0.0,9e-08,0.0,0.0,0.0,9e-08
1783584047933224890,4461,1783584047933224890,base_link,0.0204003767029,-0.014644426515,0.42108661242,-0.906672724991,1.0,0.0,0.0,0.0,1.0,0.0,0.0,0.0,1.0,-0.00443885056302,-0.0016006808728,0.0237417127937,1.21846967915e-07,0.0,0.0,0.0,1.21846967915e-07,0.0,0.0,0.0,1.21846967915e-07,-0.00980665,-0.3334261,9.8458766,9e-08,0.0,0.0,0.0,9e-08,0.0,0.0,0.0,9e-08
1783584047933224890,4461,1783584047933224890,base_link,0.0204003767029,-0.014644426515,0.42108661242,-0.906672724991,1.0,0.0,0.0,0.0,1.0,0.0,0.0,0.0,1.0,-0.00443885056302,-0.0016006808728,0.0237417127937,1.21846967915e-07,0.0,0.0,0.0,1.21846967915e-07,0.0,0.0,0.0,1.21846967915e-07,-0.00980665,-0.3334261,9.8458766,9e-08,0.0,0.0,0.0,9e-08,0.0,0.0,0.0,9e-08
1783584047933224890,4461,1783584047933224890,base_link,0.0204003767029,-0.014644426515,0.42108661242,-0.906672724991,1.0,0.0,0.0,0.0,1.0,0.0,0.0,0.0,1.0,-0.00443885056302,-0.0016006808728,0.0237417127937,1.21846967915e-07,0.0,0.0,0.0,1.21846967915e-07,0.0,0.0,0.0,1.21846967915e-07,-0.00980665,-0.3334261,9.8458766,9e-08,0.0,0.0,0.0,9e-08,0.0,0.0,0.0,9e-08
1783584047933224890,4461,1783584047933224890,base_link,0.0204003767029,-0.014644426515,0.42108661242,-0.906672724991,1.0,0.0,0.0,0.0,1.0,0.0,0.0,0.0,1.0,-0.00443885056302,-0.0016006808728,0.0237417127937,1.21846967915e-07,0.0,0.0,0.0,1.21846967915e-07,0.0,0.0,0.0,1.21846967915e-07,-0.00980665,-0.3334261,9.8458766,9e-08,0.0,0.0,0.0,9e-08,0.0,0.0,0.0,9e-08
1783584047933224890,4461,1783584047933224890,base_link,0.0204003767029,-0.014644426515,0.42108661242,-0.906672724991,1.0,0.0,0.0,0.0,1.0,0.0,0.0,0.0,1.0,-0.00443885056302,-0.0016006808728,0.0237417127937,1.21846967915e-07,0.0,0.0,0.0,1.21846967915e-07,0.0,0.0,0.0,1.21846967915e-07,-0.00980665,-0.3334261,9.8458766,9e-08,0.0,0.0,0.0,9e-08,0.0,0.0,0.0,9e-08
1783584047933224890,4461,1783584047933224890,base_link,0.0204003767029,-0.014644426515,0.42108661242,-0.906672724991,1.0,0.0,0.0,0.0,1.0,0.0,0.0,0.0,1.0,-0.00443885056302,-0.0016006808728,0.0237417127937,1.21846967915e-07,0.0,0.0,0.0,1.21846967915e-07,0.0,0.0,0.0,1.21846967915e-07,-0.00980665,-0.3334261,9.8458766,9e-08,0.0,0.0,0.0,9e-08,0.0,0.0,0.0,9e-08
1783584047933224890,4461,1783584047933224890,base_link,0.0204003767029,-0.014644426515,0.42108661242,-0.906672724991,1.0,0.0,0.0,0.0,1.0,0.0,0.0,0.0,1.0,-0.00443885056302,-0.0016006808728,0.0237417127937,1.21846967915e-07,0.0,0.0,0.0,1.21846967915e-07,0.0,0.0,0.0,1.21846967915e-07,-0.00980665,-0.3334261,9.8458766,9e-08,0.0,0.0,0.0,9e-08,0.0,0.0,0.0,9e-08
1783584047933224890,4461,1783584047933224890,base_link,0.0204003767029,-0.014644426515,0.42108661242,-0.906672724991,1.0,0.0,0.0,0.0,1.0,0.0,0.0,0.0,1.0,-0.00443885056302,-0.0016006808728,0.0237417127937,1.21846967915e-07,0.0,0.0,0.0,1.21846967915e-07,0.0,0.0,0.0,1.21846967915e-07,-0.00980665,-0.3334261,9.8458766,9e-08,0.0,0.0,0.0,9e-08,0.0,0.0,0.0,9e-08
1783584047933224890,4461,1783584047933224890,base_link,0.0204003767029,-0.014644426515,0.42108661242,-0.906672724991,1.0,0.0,0.0,0.0,1.0,0.0,0.0,0.0,1.0,-0.00443885056302,-0.0016006808728,0.0237417127937,1.21846967915e-07,0.0,0.0,0.0,1.21846967915e-07,0.0,0.0,0.0,1.21846967915e-07,-0.00980665,-0.3334261,9.8458766,9e-08,0.0,0.0,0.0,9e-08,0.0,0.0,0.0,9e-08
1783584047933224890,4461,1783584047933224890,base_link,0.0204003767029,-0.014644426515,0.42108661242,-0.906672724991,1.0,0.0,0.0,0.0,1.0,0.0,0.0,0.0,1.0,-0.00443885056302,-0.0016006808728,0.0237417127937,1.21846967915e-07,0.0,0.0,0.0,1.21846967915e-07,0.0,0.0,0.0,1.21846967915e-07,-0.00980665,-0.3334261,9.8458766,9e-08,0.0,0.0,0.0,9e-08,0.0,0.0,0.0,9e-08
1783584048174197328,4462,1783584048174197328,base_link,0.0204395492784,-0.0147001808244,0.418273229774,-0.907972265415,1.0,0.0,0.0,0.0,1.0,0.0,0.0,0.0,1.0,-0.00441667251289,0.00429381802678,0.0257019679993,1.21846967915e-07,0.0,0.0,0.0,1.21846967915e-07,0.0,0.0,0.0,1.21846967915e-07,0.0,-0.32361945,9.83606995,9e-08,0.0,0.0,0.0,9e-08,0.0,0.0,0.0,9e-08
1783584048174197328,4462,1783584048174197328,base_link,0.0204395492784,-0.0147001808244,0.418273229774,-0.907972265415,1.0,0.0,0.0,0.0,1.0,0.0,0.0,0.0,1.0,-0.00441667251289,0.00429381802678,0.0257019679993,1.21846967915e-07,0.0,0.0,0.0,1.21846967915e-07,0.0,0.0,0.0,1.21846967915e-07,0.0,-0.32361945,9.83606995,9e-08,0.0,0.0,0.0,9e-08,0.0,0.0,0.0,9e-08
1783584048174197328,4462,1783584048174197328,base_link,0.0204395492784,-0.0147001808244,0.418273229774,-0.907972265415,1.0,0.0,0.0,0.0,1.0,0.0,0.0,0.0,1.0,-0.00441667251289,0.00429381802678,0.0257019679993,1.21846967915e-07,0.0,0.0,0.0,1.21846967915e-07,0.0,0.0,0.0,1.21846967915e-07,0.0,-0.32361945,9.83606995,9e-08,0.0,0.0,0.0,9e-08,0.0,0.0,0.0,9e-08
1783584048174197328,4462,1783584048174197328,base_link,0.0204395492784,-0.0147001808244,0.418273229774,-0.907972265415,1.0,0.0,0.0,0.0,1.0,0.0,0.0,0.0,1.0,-0.00441667251289,0.00429381802678,0.0257019679993,1.21846967915e-07,0.0,0.0,0.0,1.21846967915e-07,0.0,0.0,0.0,1.21846967915e-07,0.0,-0.32361945,9.83606995,9e-08,0.0,0.0,0.0,9e-08,0.0,0.0,0.0,9e-08
1783584048174197328,4462,1783584048174197328,base_link,0.0204395492784,-0.0147001808244,0.418273229774,-0.907972265415,1.0,0.0,0.0,0.0,1.0,0.0,0.0,0.0,1.0,-0.00441667251289,0.00429381802678,0.0257019679993,1.21846967915e-07,0.0,0.0,0.0,1.21846967915e-07,0.0,0.0,0.0,1.21846967915e-07,0.0,-0.32361945,9.83606995,9e-08,0.0,0.0,0.0,9e-08,0.0,0.0,0.0,9e-08
1783584048174197328,4462,1783584048174197328,base_link,0.0204395492784,-0.0147001808244,0.418273229774,-0.907972265415,1.0,0.0,0.0,0.0,1.0,0.0,0.0,0.0,1.0,-0.00441667251289,0.00429381802678,0.0257019679993,1.21846967915e-07,0.0,0.0,0.0,1.21846967915e-07,0.0,0.0,0.0,1.21846967915e-07,0.0,-0.32361945,9.83606995,9e-08,0.0,0.0,0.0,9e-08,0.0,0.0,0.0,9e-08
1783584048174197328,4462,1783584048174197328,base_link,0.0204395492784,-0.0147001808244,0.418273229774,-0.907972265415,1.0,0.0,0.0,0.0,1.0,0.0,0.0,0.0,1.0,-0.00441667251289,0.00429381802678,0.0257019679993,1.21846967915e-07,0.0,0.0,0.0,1.21846967915e-07,0.0,0.0,0.0,1.21846967915e-07,0.0,-0.32361945,9.83606995,9e-08,0.0,0.0,0.0,9e-08,0.0,0.0,0.0,9e-08
1783584048174197328,4462,1783584048174197328,base_link,0.0204395492784,-0.0147001808244,0.418273229774,-0.907972265415,1.0,0.0,0.0,0.0,1.0,0.0,0.0,0.0,1.0,-0.00441667251289,0.00429381802678,0.0257019679993,1.21846967915e-07,0.0,0.0,0.0,1.21846967915e-07,0.0,0.0,0.0,1.21846967915e-07,0.0,-0.32361945,9.83606995,9e-08,0.0,0.0,0.0,9e-08,0.0,0.0,0.0,9e-08
1783584048174197328,4462,1783584048174197328,base_link,0.0204395492784,-0.0147001808244,0.418273229774,-0.907972265415,1.0,0.0,0.0,0.0,1.0,0.0,0.0,0.0,1.0,-0.00441667251289,0.00429381802678,0.0257019679993,1.21846967915e-07,0.0,0.0,0.0,1.21846967915e-07,0.0,0.0,0.0,1.21846967915e-07,0.0,-0.32361945,9.83606995,9e-08,0.0,0.0,0.0,9e-08,0.0,0.0,0.0,9e-08
1783584048174197328,4462,1783584048174197328,base_link,0.0204395492784,-0.0147001808244,0.418273229774,-0.907972265415,1.0,0.0,0.0,0.0,1.0,0.0,0.0,0.0,1.0,-0.00441667251289,0.00429381802678,0.0257019679993,1.21846967915e-07,0.0,0.0,0.0,1.21846967915e-07,0.0,0.0,0.0,1.21846967915e-07,0.0,-0.32361945,9.83606995,9e-08,0.0,0.0,0.0,9e-08,0.0,0.0,0.0,9e-08
1783584048174197328,4462,1783584048174197328,base_link,0.0204395492784,-0.0147001808244,0.418273229774,-0.907972265415,1.0,0.0,0.0,0.0,1.0,0.0,0.0,0.0,1.0,-0.00441667251289,0.00429381802678,0.0257019679993,1.21846967915e-07,0.0,0.0,0.0,1.21846967915e-07,0.0,0.0,0.0,1.21846967915e-07,0.0,-0.32361945,9.83606995,9e-08,0.0,0.0,0.0,9e-08,0.0,0.0,0.0,9e-08
1783584048174197328,4462,1783584048174197328,base_link,0.0204395492784,-0.0147001808244,0.418273229774,-0.907972265415,1.0,0.0,0.0,0.0,1.0,0.0,0.0,0.0,1.0,-0.00441667251289,0.00429381802678,0.0257019679993,1.21846967915e-07,0.0,0.0,0.0,1.21846967915e-07,0.0,0.0,0.0,1.21846967915e-07,0.0,-0.32361945,9.83606995,9e-08,0.0,0.0,0.0,9e-08,0.0,0.0,0.0,9e-08
1783584048174197328,4462,1783584048174197328,base_link,0.0204395492784,-0.0147001808244,0.418273229774,-0.907972265415,1.0,0.0,0.0,0.0,1.0,0.0,0.0,0.0,1.0,-0.00441667251289,0.00429381802678,0.0257019679993,1.21846967915e-07,0.0,0.0,0.0,1.21846967915e-07,0.0,0.0,0.0,1.21846967915e-07,0.0,-0.32361945,9.83606995,9e-08,0.0,0.0,0.0,9e-08,0.0,0.0,0.0,9e-08
1783584048174197328,4462,1783584048174197328,base_link,0.0204395492784,-0.0147001808244,0.418273229774,-0.907972265415,1.0,0.0,0.0,0.0,1.0,0.0,0.0,0.0,1.0,-0.00441667251289,0.00429381802678,0.0257019679993,1.21846967915e-07,0.0,0.0,0.0,1.21846967915e-07,0.0,0.0,0.0,1.21846967915e-07,0.0,-0.32361945,9.83606995,9e-08,0.0,0.0,0.0,9e-08,0.0,0.0,0.0,9e-08
1783584048174197328,4462,1783584048174197328,base_link,0.0204395492784,-0.0147001808244,0.418273229774,-0.907972265415,1.0,0.0,0.0,0.0,1.0,0.0,0.0,0.0,1.0,-0.00441667251289,0.00429381802678,0.0257019679993,1.21846967915e-07,0.0,0.0,0.0,1.21846967915e-07,0.0,0.0,0.0,1.21846967915e-07,0.0,-0.32361945,9.83606995,9e-08,0.0,0.0,0.0,9e-08,0.0,0.0,0.0,9e-08
1783584048174197328,4462,1783584048174197328,base_link,0.0204395492784,-0.0147001808244,0.418273229774,-0.907972265415,1.0,0.0,0.0,0.0,1.0,0.0,0.0,0.0,1.0,-0.00441667251289,0.00429381802678,0.0257019679993,1.21846967915e-07,0.0,0.0,0.0,1.21846967915e-07,0.0,0.0,0.0,1.21846967915e-07,0.0,-0.32361945,9.83606995,9e-08,0.0,0.0,0.0,9e-08,0.0,0.0,0.0,9e-08
1783584048174197328,4462,1783584048174197328,base_link,0.0204395492784,-0.0147001808244,0.418273229774,-0.907972265415,1.0,0.0,0.0,0.0,1.0,0.0,0.0,0.0,1.0,-0.00441667251289,0.00429381802678,0.0257019679993,1.21846967915e-07,0.0,0.0,0.0,1.21846967915e-07,0.0,0.0,0.0,1.21846967915e-07,0.0,-0.32361945,9.83606995,9e-08,0.0,0.0,0.0,9e-08,0.0,0.0,0.0,9e-08
1783584048174197328,4462,1783584048174197328,base_link,0.0204395492784,-0.0147001808244,0.418273229774,-0.907972265415,1.0,0.0,0.0,0.0,1.0,0.0,0.0,0.0,1.0,-0.00441667251289,0.00429381802678,0.0257019679993,1.21846967915e-07,0.0,0.0,0.0,1.21846967915e-07,0.0,0.0,0.0,1.21846967915e-07,0.0,-0.32361945,9.83606995,9e-08,0.0,0.0,0.0,9e-08,0.0,0.0,0.0,9e-08
1783584048174197328,4462,1783584048174197328,base_link,0.0204395492784,-0.0147001808244,0.418273229774,-0.907972265415,1.0,0.0,0.0,0.0,1.0,0.0,0.0,0.0,1.0,-0.00441667251289,0.00429381802678,0.0257019679993,1.21846967915e-07,0.0,0.0,0.0,1.21846967915e-07,0.0,0.0,0.0,1.21846967915e-07,0.0,-0.32361945,9.83606995,9e-08,0.0,0.0,0.0,9e-08,0.0,0.0,0.0,9e-08
1783584048174197328,4462,1783584048174197328,base_link,0.0204395492784,-0.0147001808244,0.418273229774,-0.907972265415,1.0,0.0,0.0,0.0,1.0,0.0,0.0,0.0,1.0,-0.00441667251289,0.00429381802678,0.0257019679993,1.21846967915e-07,0.0,0.0,0.0,1.21846967915e-07,0.0,0.0,0.0,1.21846967915e-07,0.0,-0.32361945,9.83606995,9e-08,0.0,0.0,0.0,9e-08,0.0,0.0,0.0,9e-08
1783584048174197328,4462,1783584048174197328,base_link,0.0204395492784,-0.0147001808244,0.418273229774,-0.907972265415,1.0,0.0,0.0,0.0,1.0,0.0,0.0,0.0,1.0,-0.00441667251289,0.00429381802678,0.0257019679993,1.21846967915e-07,0.0,0.0,0.0,1.21846967915e-07,0.0,0.0,0.0,1.21846967915e-07,0.0,-0.32361945,9.83606995,9e-08,0.0,0.0,0.0,9e-08,0.0,0.0,0.0,9e-08
1783584048174197328,4462,1783584048174197328,base_link,0.0204395492784,-0.0147001808244,0.418273229774,-0.907972265415,1.0,0.0,0.0,0.0,1.0,0.0,0.0,0.0,1.0,-0.00441667251289,0.00429381802678,0.0257019679993,1.21846967915e-07,0.0,0.0,0.0,1.21846967915e-07,0.0,0.0,0.0,1.21846967915e-07,0.0,-0.32361945,9.83606995,9e-08,0.0,0.0,0.0,9e-08,0.0,0.0,0.0,9e-08
1783584048174197328,4462,1783584048174197328,base_link,0.0204395492784,-0.0147001808244,0.418273229774,-0.907972265415,1.0,0.0,0.0,0.0,1.0,0.0,0.0,0.0,1.0,-0.00441667251289,0.00429381802678,0.0257019679993,1.21846967915e-07,0.0,0.0,0.0,1.21846967915e-07,0.0,0.0,0.0,1.21846967915e-07,0.0,-0.32361945,9.83606995,9e-08,0.0,0.0,0.0,9e-08,0.0,0.0,0.0,9e-08
1783584048174197328,4462,1783584048174197328,base_link,0.0204395492784,-0.0147001808244,0.418273229774,-0.907972265415,1.0,0.0,0.0,0.0,1.0,0.0,0.0,0.0,1.0,-0.00441667251289,0.00429381802678,0.0257019679993,1.21846967915e-07,0.0,0.0,0.0,1.21846967915e-07,0.0,0.0,0.0,1.21846967915e-07,0.0,-0.32361945,9.83606995,9e-08,0.0,0.0,0.0,9e-08,0.0,0.0,0.0,9e-08
1783584048174197328,4462,1783584048174197328,base_link,0.0204395492784,-0.0147001808244,0.418273229774,-0.907972265415,1.0,0.0,0.0,0.0,1.0,0.0,0.0,0.0,1.0,-0.00441667251289,0.00429381802678,0.0257019679993,1.21846967915e-07,0.0,0.0,0.0,1.21846967915e-07,0.0,0.0,0.0,1.21846967915e-07,0.0,-0.32361945,9.83606995,9e-08,0.0,0.0,0.0,9e-08,0.0,0.0,0.0,9e-08
1783584048174197328,4462,1783584048174197328,base_link,0.0204395492784,-0.0147001808244,0.418273229774,-0.907972265415,1.0,0.0,0.0,0.0,1.0,0.0,0.0,0.0,1.0,-0.00441667251289,0.00429381802678,0.0257019679993,1.21846967915e-07,0.0,0.0,0.0,1.21846967915e-07,0.0,0.0,0.0,1.21846967915e-07,0.0,-0.32361945,9.83606995,9e-08,0.0,0.0,0.0,9e-08,0.0,0.0,0.0,9e-08
1783584048433197328,4463,1783584048433197328,base_link,0.0170717132352,-0.0132689152243,0.440930712618,-0.897280669114,1.0,0.0,0.0,0.0,1.0,0.0,0.0,0.0,1.0,0.0489850826561,0.00723764393479,-0.367363214493,1.21846967915e-07,0.0,0.0,0.0,1.21846967915e-07,0.0,0.0,0.0,1.21846967915e-07,0.0,-0.32361945,9.83606995,9e-08,0.0,0.0,0.0,9e-08,0.0,0.0,0.0,9e-08
1783584048433197328,4463,1783584048433197328,base_link,0.0170717132352,-0.0132689152243,0.440930712618,-0.897280669114,1.0,0.0,0.0,0.0,1.0,0.0,0.0,0.0,1.0,0.0489850826561,0.00723764393479,-0.367363214493,1.21846967915e-07,0.0,0.0,0.0,1.21846967915e-07,0.0,0.0,0.0,1.21846967915e-07,0.0,-0.32361945,9.83606995,9e-08,0.0,0.0,0.0,9e-08,0.0,0.0,0.0,9e-08
1783584048433197328,4463,1783584048433197328,base_link,0.0170717132352,-0.0132689152243,0.440930712618,-0.897280669114,1.0,0.0,0.0,0.0,1.0,0.0,0.0,0.0,1.0,0.0489850826561,0.00723764393479,-0.367363214493,1.21846967915e-07,0.0,0.0,0.0,1.21846967915e-07,0.0,0.0,0.0,1.21846967915e-07,0.0,-0.32361945,9.83606995,9e-08,0.0,0.0,0.0,9e-08,0.0,0.0,0.0,9e-08
1783584048433197328,4463,1783584048433197328,base_link,0.0170717132352,-0.0132689152243,0.440930712618,-0.897280669114,1.0,0.0,0.0,0.0,1.0,0.0,0.0,0.0,1.0,0.0489850826561,0.00723764393479,-0.367363214493,1.21846967915e-07,0.0,0.0,0.0,1.21846967915e-07,0.0,0.0,0.0,1.21846967915e-07,0.0,-0.32361945,9.83606995,9e-08,0.0,0.0,0.0,9e-08,0.0,0.0,0.0,9e-08
1783584048433197328,4463,1783584048433197328,base_link,0.0170717132352,-0.0132689152243,0.440930712618,-0.897280669114,1.0,0.0,0.0,0.0,1.0,0.0,0.0,0.0,1.0,0.0489850826561,0.00723764393479,-0.367363214493,1.21846967915e-07,0.0,0.0,0.0,1.21846967915e-07,0.0,0.0,0.0,1.21846967915e-07,0.0,-0.32361945,9.83606995,9e-08,0.0,0.0,0.0,9e-08,0.0,0.0,0.0,9e-08
1783584048433197328,4463,1783584048433197328,base_link,0.0170717132352,-0.0132689152243,0.440930712618,-0.897280669114,1.0,0.0,0.0,0.0,1.0,0.0,0.0,0.0,1.0,0.0489850826561,0.00723764393479,-0.367363214493,1.21846967915e-07,0.0,0.0,0.0,1.21846967915e-07,0.0,0.0,0.0,1.21846967915e-07,0.0,-0.32361945,9.83606995,9e-08,0.0,0.0,0.0,9e-08,0.0,0.0,0.0,9e-08
1783584048433197328,4463,1783584048433197328,base_link,0.0170717132352,-0.0132689152243,0.440930712618,-0.897280669114,1.0,0.0,0.0,0.0,1.0,0.0,0.0,0.0,1.0,0.0489850826561,0.00723764393479,-0.367363214493,1.21846967915e-07,0.0,0.0,0.0,1.21846967915e-07,0.0,0.0,0.0,1.21846967915e-07,0.0,-0.32361945,9.83606995,9e-08,0.0,0.0,0.0,9e-08,0.0,0.0,0.0,9e-08
1783584048433197328,4463,1783584048433197328,base_link,0.0170717132352,-0.0132689152243,0.440930712618,-0.897280669114,1.0,0.0,0.0,0.0,1.0,0.0,0.0,0.0,1.0,0.0489850826561,0.00723764393479,-0.367363214493,1.21846967915e-07,0.0,0.0,0.0,1.21846967915e-07,0.0,0.0,0.0,1.21846967915e-07,0.0,-0.32361945,9.83606995,9e-08,0.0,0.0,0.0,9e-08,0.0,0.0,0.0,9e-08
1783584048433197328,4463,1783584048433197328,base_link,0.0170717132352,-0.0132689152243,0.440930712618,-0.897280669114,1.0,0.0,0.0,0.0,1.0,0.0,0.0,0.0,1.0,0.0489850826561,0.00723764393479,-0.367363214493,1.21846967915e-07,0.0,0.0,0.0,1.21846967915e-07,0.0,0.0,0.0,1.21846967915e-07,0.0,-0.32361945,9.83606995,9e-08,0.0,0.0,0.0,9e-08,0.0,0.0,0.0,9e-08
1783584048433197328,4463,1783584048433197328,base_link,0.0170717132352,-0.0132689152243,0.440930712618,-0.897280669114,1.0,0.0,0.0,0.0,1.0,0.0,0.0,0.0,1.0,0.0489850826561,0.00723764393479,-0.367363214493,1.21846967915e-07,0.0,0.0,0.0,1.21846967915e-07,0.0,0.0,0.0,1.21846967915e-07,0.0,-0.32361945,9.83606995,9e-08,0.0,0.0,0.0,9e-08,0.0,0.0,0.0,9e-08
1783584048433197328,4463,1783584048433197328,base_link,0.0170717132352,-0.0132689152243,0.440930712618,-0.897280669114,1.0,0.0,0.0,0.0,1.0,0.0,0.0,0.0,1.0,0.0489850826561,0.00723764393479,-0.367363214493,1.21846967915e-07,0.0,0.0,0.0,1.21846967915e-07,0.0,0.0,0.0,1.21846967915e-07,0.0,-0.32361945,9.83606995,9e-08,0.0,0.0,0.0,9e-08,0.0,0.0,0.0,9e-08
1783584048433197328,4463,1783584048433197328,base_link,0.0170717132352,-0.0132689152243,0.440930712618,-0.897280669114,1.0,0.0,0.0,0.0,1.0,0.0,0.0,0.0,1.0,0.0489850826561,0.00723764393479,-0.367363214493,1.21846967915e-07,0.0,0.0,0.0,1.21846967915e-07,0.0,0.0,0.0,1.21846967915e-07,0.0,-0.32361945,9.83606995,9e-08,0.0,0.0,0.0,9e-08,0.0,0.0,0.0,9e-08
1783584048433197328,4463,1783584048433197328,base_link,0.0170717132352,-0.0132689152243,0.440930712618,-0.897280669114,1.0,0.0,0.0,0.0,1.0,0.0,0.0,0.0,1.0,0.0489850826561,0.00723764393479,-0.367363214493,1.21846967915e-07,0.0,0.0,0.0,1.21846967915e-07,0.0,0.0,0.0,1.21846967915e-07,0.0,-0.32361945,9.83606995,9e-08,0.0,0.0,0.0,9e-08,0.0,0.0,0.0,9e-08
1783584048433197328,4463,1783584048433197328,base_link,0.0170717132352,-0.0132689152243,0.440930712618,-0.897280669114,1.0,0.0,0.0,0.0,1.0,0.0,0.0,0.0,1.0,0.0489850826561,0.00723764393479,-0.367363214493,1.21846967915e-07,0.0,0.0,0.0,1.21846967915e-07,0.0,0.0,0.0,1.21846967915e-07,0.0,-0.32361945,9.83606995,9e-08,0.0,0.0,0.0,9e-08,0.0,0.0,0.0,9e-08
1783584048433197328,4463,1783584048433197328,base_link,0.0170717132352,-0.0132689152243,0.440930712618,-0.897280669114,1.0,0.0,0.0,0.0,1.0,0.0,0.0,0.0,1.0,0.0489850826561,0.00723764393479,-0.367363214493,1.21846967915e-07,0.0,0.0,0.0,1.21846967915e-07,0.0,0.0,0.0,1.21846967915e-07,0.0,-0.32361945,9.83606995,9e-08,0.0,0.0,0.0,9e-08,0.0,0.0,0.0,9e-08
1783584048433197328,4463,1783584048433197328,base_link,0.0170717132352,-0.0132689152243,0.440930712618,-0.897280669114,1.0,0.0,0.0,0.0,1.0,0.0,0.0,0.0,1.0,0.0489850826561,0.00723764393479,-0.367363214493,1.21846967915e-07,0.0,0.0,0.0,1.21846967915e-07,0.0,0.0,0.0,1.21846967915e-07,0.0,-0.32361945,9.83606995,9e-08,0.0,0.0,0.0,9e-08,0.0,0.0,0.0,9e-08
1783584048433197328,4463,1783584048433197328,base_link,0.0170717132352,-0.0132689152243,0.440930712618,-0.897280669114,1.0,0.0,0.0,0.0,1.0,0.0,0.0,0.0,1.0,0.0489850826561,0.00723764393479,-0.367363214493,1.21846967915e-07,0.0,0.0,0.0,1.21846967915e-07,0.0,0.0,0.0,1.21846967915e-07,0.0,-0.32361945,9.83606995,9e-08,0.0,0.0,0.0,9e-08,0.0,0.0,0.0,9e-08
1783584048433197328,4463,1783584048433197328,base_link,0.0170717132352,-0.0132689152243,0.440930712618,-0.897280669114,1.0,0.0,0.0,0.0,1.0,0.0,0.0,0.0,1.0,0.0489850826561,0.00723764393479,-0.367363214493,1.21846967915e-07,0.0,0.0,0.0,1.21846967915e-07,0.0,0.0,0.0,1.21846967915e-07,0.0,-0.32361945,9.83606995,9e-08,0.0,0.0,0.0,9e-08,0.0,0.0,0.0,9e-08
1783584048433197328,4463,1783584048433197328,base_link,0.0170717132352,-0.0132689152243,0.440930712618,-0.897280669114,1.0,0.0,0.0,0.0,1.0,0.0,0.0,0.0,1.0,0.0489850826561,0.00723764393479,-0.367363214493,1.21846967915e-07,0.0,0.0,0.0,1.21846967915e-07,0.0,0.0,0.0,1.21846967915e-07,0.0,-0.32361945,9.83606995,9e-08,0.0,0.0,0.0,9e-08,0.0,0.0,0.0,9e-08
1783584048433197328,4463,1783584048433197328,base_link,0.0170717132352,-0.0132689152243,0.440930712618,-0.897280669114,1.0,0.0,0.0,0.0,1.0,0.0,0.0,0.0,1.0,0.0489850826561,0.00723764393479,-0.367363214493,1.21846967915e-07,0.0,0.0,0.0,1.21846967915e-07,0.0,0.0,0.0,1.21846967915e-07,0.0,-0.32361945,9.83606995,9e-08,0.0,0.0,0.0,9e-08,0.0,0.0,0.0,9e-08
1783584048433197328,4463,1783584048433197328,base_link,0.0170717132352,-0.0132689152243,0.440930712618,-0.897280669114,1.0,0.0,0.0,0.0,1.0,0.0,0.0,0.0,1.0,0.0489850826561,0.00723764393479,-0.367363214493,1.21846967915e-07,0.0,0.0,0.0,1.21846967915e-07,0.0,0.0,0.0,1.21846967915e-07,0.0,-0.32361945,9.83606995,9e-08,0.0,0.0,0.0,9e-08,0.0,0.0,0.0,9e-08
1783584048433197328,4463,1783584048433197328,base_link,0.0170717132352,-0.0132689152243,0.440930712618,-0.897280669114,1.0,0.0,0.0,0.0,1.0,0.0,0.0,0.0,1.0,0.0489850826561,0.00723764393479,-0.367363214493,1.21846967915e-07,0.0,0.0,0.0,1.21846967915e-07,0.0,0.0,0.0,1.21846967915e-07,0.0,-0.32361945,9.83606995,9e-08,0.0,0.0,0.0,9e-08,0.0,0.0,0.0,9e-08
1783584048433197328,4463,1783584048433197328,base_link,0.0170717132352,-0.0132689152243,0.440930712618,-0.897280669114,1.0,0.0,0.0,0.0,1.0,0.0,0.0,0.0,1.0,0.0489850826561,0.00723764393479,-0.367363214493,1.21846967915e-07,0.0,0.0,0.0,1.21846967915e-07,0.0,0.0,0.0,1.21846967915e-07,0.0,-0.32361945,9.83606995,9e-08,0.0,0.0,0.0,9e-08,0.0,0.0,0.0,9e-08
1783584048433197328,4463,1783584048433197328,base_link,0.0170717132352,-0.0132689152243,0.440930712618,-0.897280669114,1.0,0.0,0.0,0.0,1.0,0.0,0.0,0.0,1.0,0.0489850826561,0.00723764393479,-0.367363214493,1.21846967915e-07,0.0,0.0,0.0,1.21846967915e-07,0.0,0.0,0.0,1.21846967915e-07,0.0,-0.32361945,9.83606995,9e-08,0.0,0.0,0.0,9e-08,0.0,0.0,0.0,9e-08
1783584048674179359,4464,1783584048674179359,base_link,0.020487117973,-0.0130392423417,0.455467564122,-0.889921094361,1.0,0.0,0.0,0.0,1.0,0.0,0.0,0.0,1.0,-0.0577586479485,-0.0125315915793,-0.00043380074203,1.21846967915e-07,0.0,0.0,0.0,1.21846967915e-07,0.0,0.0,0.0,1.21846967915e-07,0.0392266,-0.2353596,9.7870367,9e-08,0.0,0.0,0.0,9e-08,0.0,0.0,0.0,9e-08
1783584048674179359,4464,1783584048674179359,base_link,0.020487117973,-0.0130392423417,0.455467564122,-0.889921094361,1.0,0.0,0.0,0.0,1.0,0.0,0.0,0.0,1.0,-0.0577586479485,-0.0125315915793,-0.00043380074203,1.21846967915e-07,0.0,0.0,0.0,1.21846967915e-07,0.0,0.0,0.0,1.21846967915e-07,0.0392266,-0.2353596,9.7870367,9e-08,0.0,0.0,0.0,9e-08,0.0,0.0,0.0,9e-08
1783584048674179359,4464,1783584048674179359,base_link,0.020487117973,-0.0130392423417,0.455467564122,-0.889921094361,1.0,0.0,0.0,0.0,1.0,0.0,0.0,0.0,1.0,-0.0577586479485,-0.0125315915793,-0.00043380074203,1.21846967915e-07,0.0,0.0,0.0,1.21846967915e-07,0.0,0.0,0.0,1.21846967915e-07,0.0392266,-0.2353596,9.7870367,9e-08,0.0,0.0,0.0,9e-08,0.0,0.0,0.0,9e-08
1783584048674179359,4464,1783584048674179359,base_link,0.020487117973,-0.0130392423417,0.455467564122,-0.889921094361,1.0,0.0,0.0,0.0,1.0,0.0,0.0,0.0,1.0,-0.0577586479485,-0.0125315915793,-0.00043380074203,1.21846967915e-07,0.0,0.0,0.0,1.21846967915e-07,0.0,0.0,0.0,1.21846967915e-07,0.0392266,-0.2353596,9.7870367,9e-08,0.0,0.0,0.0,9e-08,0.0,0.0,0.0,9e-08
1783584048674179359,4464,1783584048674179359,base_link,0.020487117973,-0.0130392423417,0.455467564122,-0.889921094361,1.0,0.0,0.0,0.0,1.0,0.0,0.0,0.0,1.0,-0.0577586479485,-0.0125315915793,-0.00043380074203,1.21846967915e-07,0.0,0.0,0.0,1.21846967915e-07,0.0,0.0,0.0,1.21846967915e-07,0.0392266,-0.2353596,9.7870367,9e-08,0.0,0.0,0.0,9e-08,0.0,0.0,0.0,9e-08
1783584048674179359,4464,1783584048674179359,base_link,0.020487117973,-0.0130392423417,0.455467564122,-0.889921094361,1.0,0.0,0.0,0.0,1.0,0.0,0.0,0.0,1.0,-0.0577586479485,-0.0125315915793,-0.00043380074203,1.21846967915e-07,0.0,0.0,0.0,1.21846967915e-07,0.0,0.0,0.0,1.21846967915e-07,0.0392266,-0.2353596,9.7870367,9e-08,0.0,0.0,0.0,9e-08,0.0,0.0,0.0,9e-08
1783584048674179359,4464,1783584048674179359,base_link,0.020487117973,-0.0130392423417,0.455467564122,-0.889921094361,1.0,0.0,0.0,0.0,1.0,0.0,0.0,0.0,1.0,-0.0577586479485,-0.0125315915793,-0.00043380074203,1.21846967915e-07,0.0,0.0,0.0,1.21846967915e-07,0.0,0.0,0.0,1.21846967915e-07,0.0392266,-0.2353596,9.7870367,9e-08,0.0,0.0,0.0,9e-08,0.0,0.0,0.0,9e-08
1783584048674179359,4464,1783584048674179359,base_link,0.020487117973,-0.0130392423417,0.455467564122,-0.889921094361,1.0,0.0,0.0,0.0,1.0,0.0,0.0,0.0,1.0,-0.0577586479485,-0.0125315915793,-0.00043380074203,1.21846967915e-07,0.0,0.0,0.0,1.21846967915e-07,0.0,0.0,0.0,1.21846967915e-07,0.0392266,-0.2353596,9.7870367,9e-08,0.0,0.0,0.0,9e-08,0.0,0.0,0.0,9e-08
1783584048674179359,4464,1783584048674179359,base_link,0.020487117973,-0.0130392423417,0.455467564122,-0.889921094361,1.0,0.0,0.0,0.0,1.0,0.0,0.0,0.0,1.0,-0.0577586479485,-0.0125315915793,-0.00043380074203,1.21846967915e-07,0.0,0.0,0.0,1.21846967915e-07,0.0,0.0,0.0,1.21846967915e-07,0.0392266,-0.2353596,9.7870367,9e-08,0.0,0.0,0.0,9e-08,0.0,0.0,0.0,9e-08
1783584048674179359,4464,1783584048674179359,base_link,0.020487117973,-0.0130392423417,0.455467564122,-0.889921094361,1.0,0.0,0.0,0.0,1.0,0.0,0.0,0.0,1.0,-0.0577586479485,-0.0125315915793,-0.00043380074203,1.21846967915e-07,0.0,0.0,0.0,1.21846967915e-07,0.0,0.0,0.0,1.21846967915e-07,0.0392266,-0.2353596,9.7870367,9e-08,0.0,0.0,0.0,9e-08,0.0,0.0,0.0,9e-08
1783584048674179359,4464,1783584048674179359,base_link,0.020487117973,-0.0130392423417,0.455467564122,-0.889921094361,1.0,0.0,0.0,0.0,1.0,0.0,0.0,0.0,1.0,-0.0577586479485,-0.0125315915793,-0.00043380074203,1.21846967915e-07,0.0,0.0,0.0,1.21846967915e-07,0.0,0.0,0.0,1.21846967915e-07,0.0392266,-0.2353596,9.7870367,9e-08,0.0,0.0,0.0,9e-08,0.0,0.0,0.0,9e-08
1783584048674179359,4464,1783584048674179359,base_link,0.020487117973,-0.0130392423417,0.455467564122,-0.889921094361,1.0,0.0,0.0,0.0,1.0,0.0,0.0,0.0,1.0,-0.0577586479485,-0.0125315915793,-0.00043380074203,1.21846967915e-07,0.0,0.0,0.0,1.21846967915e-07,0.0,0.0,0.0,1.21846967915e-07,0.0392266,-0.2353596,9.7870367,9e-08,0.0,0.0,0.0,9e-08,0.0,0.0,0.0,9e-08
1783584048674179359,4464,1783584048674179359,base_link,0.020487117973,-0.0130392423417,0.455467564122,-0.889921094361,1.0,0.0,0.0,0.0,1.0,0.0,0.0,0.0,1.0,-0.0577586479485,-0.0125315915793,-0.00043380074203,1.21846967915e-07,0.0,0.0,0.0,1.21846967915e-07,0.0,0.0,0.0,1.21846967915e-07,0.0392266,-0.2353596,9.7870367,9e-08,0.0,0.0,0.0,9e-08,0.0,0.0,0.0,9e-08
1783584048674179359,4464,1783584048674179359,base_link,0.020487117973,-0.0130392423417,0.455467564122,-0.889921094361,1.0,0.0,0.0,0.0,1.0,0.0,0.0,0.0,1.0,-0.0577586479485,-0.0125315915793,-0.00043380074203,1.21846967915e-07,0.0,0.0,0.0,1.21846967915e-07,0.0,0.0,0.0,1.21846967915e-07,0.0392266,-0.2353596,9.7870367,9e-08,0.0,0.0,0.0,9e-08,0.0,0.0,0.0,9e-08
1783584048674179359,4464,1783584048674179359,base_link,0.020487117973,-0.0130392423417,0.455467564122,-0.889921094361,1.0,0.0,0.0,0.0,1.0,0.0,0.0,0.0,1.0,-0.0577586479485,-0.0125315915793,-0.00043380074203,1.21846967915e-07,0.0,0.0,0.0,1.21846967915e-07,0.0,0.0,0.0,1.21846967915e-07,0.0392266,-0.2353596,9.7870367,9e-08,0.0,0.0,0.0,9e-08,0.0,0.0,0.0,9e-08
1783584048674179359,4464,1783584048674179359,base_link,0.020487117973,-0.0130392423417,0.455467564122,-0.889921094361,1.0,0.0,0.0,0.0,1.0,0.0,0.0,0.0,1.0,-0.0577586479485,-0.0125315915793,-0.00043380074203,1.21846967915e-07,0.0,0.0,0.0,1.21846967915e-07,0.0,0.0,0.0,1.21846967915e-07,0.0392266,-0.2353596,9.7870367,9e-08,0.0,0.0,0.0,9e-08,0.0,0.0,0.0,9e-08
1783584048674179359,4464,1783584048674179359,base_link,0.020487117973,-0.0130392423417,0.455467564122,-0.889921094361,1.0,0.0,0.0,0.0,1.0,0.0,0.0,0.0,1.0,-0.0577586479485,-0.0125315915793,-0.00043380074203,1.21846967915e-07,0.0,0.0,0.0,1.21846967915e-07,0.0,0.0,0.0,1.21846967915e-07,0.0392266,-0.2353596,9.7870367,9e-08,0.0,0.0,0.0,9e-08,0.0,0.0,0.0,9e-08
1783584048674179359,4464,1783584048674179359,base_link,0.020487117973,-0.0130392423417,0.455467564122,-0.889921094361,1.0,0.0,0.0,0.0,1.0,0.0,0.0,0.0,1.0,-0.0577586479485,-0.0125315915793,-0.00043380074203,1.21846967915e-07,0.0,0.0,0.0,1.21846967915e-07,0.0,0.0,0.0,1.21846967915e-07,0.0392266,-0.2353596,9.7870367,9e-08,0.0,0.0,0.0,9e-08,0.0,0.0,0.0,9e-08
1783584048674179359,4464,1783584048674179359,base_link,0.020487117973,-0.0130392423417,0.455467564122,-0.889921094361,1.0,0.0,0.0,0.0,1.0,0.0,0.0,0.0,1.0,-0.0577586479485,-0.0125315915793,-0.00043380074203,1.21846967915e-07,0.0,0.0,0.0,1.21846967915e-07,0.0,0.0,0.0,1.21846967915e-07,0.0392266,-0.2353596,9.7870367,9e-08,0.0,0.0,0.0,9e-08,0.0,0.0,0.0,9e-08
1783584048674179359,4464,1783584048674179359,base_link,0.020487117973,-0.0130392423417,0.455467564122,-0.889921094361,1.0,0.0,0.0,0.0,1.0,0.0,0.0,0.0,1.0,-0.0577586479485,-0.0125315915793,-0.00043380074203,1.21846967915e-07,0.0,0.0,0.0,1.21846967915e-07,0.0,0.0,0.0,1.21846967915e-07,0.0392266,-0.2353596,9.7870367,9e-08,0.0,0.0,0.0,9e-08,0.0,0.0,0.0,9e-08
1783584048674179359,4464,1783584048674179359,base_link,0.020487117973,-0.0130392423417,0.455467564122,-0.889921094361,1.0,0.0,0.0,0.0,1.0,0.0,0.0,0.0,1.0,-0.0577586479485,-0.0125315915793,-0.00043380074203,1.21846967915e-07,0.0,0.0,0.0,1.21846967915e-07,0.0,0.0,0.0,1.21846967915e-07,0.0392266,-0.2353596,9.7870367,9e-08,0.0,0.0,0.0,9e-08,0.0,0.0,0.0,9e-08
1783584048674179359,4464,1783584048674179359,base_link,0.020487117973,-0.0130392423417,0.455467564122,-0.889921094361,1.0,0.0,0.0,0.0,1.0,0.0,0.0,0.0,1.0,-0.0577586479485,-0.0125315915793,-0.00043380074203,1.21846967915e-07,0.0,0.0,0.0,1.21846967915e-07,0.0,0.0,0.0,1.21846967915e-07,0.0392266,-0.2353596,9.7870367,9e-08,0.0,0.0,0.0,9e-08,0.0,0.0,0.0,9e-08
1783584048674179359,4464,1783584048674179359,base_link,0.020487117973,-0.0130392423417,0.455467564122,-0.889921094361,1.0,0.0,0.0,0.0,1.0,0.0,0.0,0.0,1.0,-0.0577586479485,-0.0125315915793,-0.00043380074203,1.21846967915e-07,0.0,0.0,0.0,1.21846967915e-07,0.0,0.0,0.0,1.21846967915e-07,0.0392266,-0.2353596,9.7870367,9e-08,0.0,0.0,0.0,9e-08,0.0,0.0,0.0,9e-08
1783584048674179359,4464,1783584048674179359,base_link,0.020487117973,-0.0130392423417,0.455467564122,-0.889921094361,1.0,0.0,0.0,0.0,1.0,0.0,0.0,0.0,1.0,-0.0577586479485,-0.0125315915793,-0.00043380074203,1.21846967915e-07,0.0,0.0,0.0,1.21846967915e-07,0.0,0.0,0.0,1.21846967915e-07,0.0392266,-0.2353596,9.7870367,9e-08,0.0,0.0,0.0,9e-08,0.0,0.0,0.0,9e-08
1783584048674179359,4464,1783584048674179359,base_link,0.020487117973,-0.0130392423417,0.455467564122,-0.889921094361,1.0,0.0,0.0,0.0,1.0,0.0,0.0,0.0,1.0,-0.0577586479485,-0.0125315915793,-0.00043380074203,1.21846967915e-07,0.0,0.0,0.0,1.21846967915e-07,0.0,0.0,0.0,1.21846967915e-07,0.0392266,-0.2353596,9.7870367,9e-08,0.0,0.0,0.0,9e-08,0.0,0.0,0.0,9e-08
1783584048674179359,4464,1783584048674179359,base_link,0.020487117973,-0.0130392423417,0.455467564122,-0.889921094361,1.0,0.0,0.0,0.0,1.0,0.0,0.0,0.0,1.0,-0.0577586479485,-0.0125315915793,-0.00043380074203,1.21846967915e-07,0.0,0.0,0.0,1.21846967915e-07,0.0,0.0,0.0,1.21846967915e-07,0.0392266,-0.2353596,9.7870367,9e-08,0.0,0.0,0.0,9e-08,0.0,0.0,0.0,9e-08
1783584048933179359,4465,1783584048933179359,base_link,0.0182622791562,-0.0113559447518,0.463419089977,-0.885878252766,1.0,0.0,0.0,0.0,1.0,0.0,0.0,0.0,1.0,0.0460922457278,0.0061824247241,-0.121551297605,1.21846967915e-07,0.0,0.0,0.0,1.21846967915e-07,0.0,0.0,0.0,1.21846967915e-07,0.0392266,-0.2353596,9.7870367,9e-08,0.0,0.0,0.0,9e-08,0.0,0.0,0.0,9e-08
1783584048933179359,4465,1783584048933179359,base_link,0.0182622791562,-0.0113559447518,0.463419089977,-0.885878252766,1.0,0.0,0.0,0.0,1.0,0.0,0.0,0.0,1.0,0.0460922457278,0.0061824247241,-0.121551297605,1.21846967915e-07,0.0,0.0,0.0,1.21846967915e-07,0.0,0.0,0.0,1.21846967915e-07,0.0392266,-0.2353596,9.7870367,9e-08,0.0,0.0,0.0,9e-08,0.0,0.0,0.0,9e-08
1783584048933179359,4465,1783584048933179359,base_link,0.0182622791562,-0.0113559447518,0.463419089977,-0.885878252766,1.0,0.0,0.0,0.0,1.0,0.0,0.0,0.0,1.0,0.0460922457278,0.0061824247241,-0.121551297605,1.21846967915e-07,0.0,0.0,0.0,1.21846967915e-07,0.0,0.0,0.0,1.21846967915e-07,0.0392266,-0.2353596,9.7870367,9e-08,0.0,0.0,0.0,9e-08,0.0,0.0,0.0,9e-08
1783584048933179359,4465,1783584048933179359,base_link,0.0182622791562,-0.0113559447518,0.463419089977,-0.885878252766,1.0,0.0,0.0,0.0,1.0,0.0,0.0,0.0,1.0,0.0460922457278,0.0061824247241,-0.121551297605,1.21846967915e-07,0.0,0.0,0.0,1.21846967915e-07,0.0,0.0,0.0,1.21846967915e-07,0.0392266,-0.2353596,9.7870367,9e-08,0.0,0.0,0.0,9e-08,0.0,0.0,0.0,9e-08
1783584048933179359,4465,1783584048933179359,base_link,0.0182622791562,-0.0113559447518,0.463419089977,-0.885878252766,1.0,0.0,0.0,0.0,1.0,0.0,0.0,0.0,1.0,0.0460922457278,0.0061824247241,-0.121551297605,1.21846967915e-07,0.0,0.0,0.0,1.21846967915e-07,0.0,0.0,0.0,1.21846967915e-07,0.0392266,-0.2353596,9.7870367,9e-08,0.0,0.0,0.0,9e-08,0.0,0.0,0.0,9e-08
1783584048933179359,4465,1783584048933179359,base_link,0.0182622791562,-0.0113559447518,0.463419089977,-0.885878252766,1.0,0.0,0.0,0.0,1.0,0.0,0.0,0.0,1.0,0.0460922457278,0.0061824247241,-0.121551297605,1.21846967915e-07,0.0,0.0,0.0,1.21846967915e-07,0.0,0.0,0.0,1.21846967915e-07,0.0392266,-0.2353596,9.7870367,9e-08,0.0,0.0,0.0,9e-08,0.0,0.0,0.0,9e-08
1783584048933179359,4465,1783584048933179359,base_link,0.0182622791562,-0.0113559447518,0.463419089977,-0.885878252766,1.0,0.0,0.0,0.0,1.0,0.0,0.0,0.0,1.0,0.0460922457278,0.0061824247241,-0.121551297605,1.21846967915e-07,0.0,0.0,0.0,1.21846967915e-07,0.0,0.0,0.0,1.21846967915e-07,0.0392266,-0.2353596,9.7870367,9e-08,0.0,0.0,0.0,9e-08,0.0,0.0,0.0,9e-08
1783584048933179359,4465,1783584048933179359,base_link,0.0182622791562,-0.0113559447518,0.463419089977,-0.885878252766,1.0,0.0,0.0,0.0,1.0,0.0,0.0,0.0,1.0,0.0460922457278,0.0061824247241,-0.121551297605,1.21846967915e-07,0.0,0.0,0.0,1.21846967915e-07,0.0,0.0,0.0,1.21846967915e-07,0.0392266,-0.2353596,9.7870367,9e-08,0.0,0.0,0.0,9e-08,0.0,0.0,0.0,9e-08
1783584048933179359,4465,1783584048933179359,base_link,0.0182622791562,-0.0113559447518,0.463419089977,-0.885878252766,1.0,0.0,0.0,0.0,1.0,0.0,0.0,0.0,1.0,0.0460922457278,0.0061824247241,-0.121551297605,1.21846967915e-07,0.0,0.0,0.0,1.21846967915e-07,0.0,0.0,0.0,1.21846967915e-07,0.0392266,-0.2353596,9.7870367,9e-08,0.0,0.0,0.0,9e-08,0.0,0.0,0.0,9e-08
